Subject No.,First Session,Session Type,Game No.,Congruency,Direction,Good/Bad,Response Direction,Response Good/Bad,Trial No.,Trial Correct,Reaction Time
4,audio,audio,1,Incongruent,right,good,NaN,NaN,1,NaN,NaN
4,audio,audio,1,Congruent,left,good,NaN,NaN,2,NaN,NaN
4,audio,audio,1,Control    ,left,good,left,good,3,1,987
4,audio,audio,1,Control    ,left,bad,left,bad,4,1,986
4,audio,audio,1,Incongruent,left,bad,left,good,5,0,1078
4,audio,audio,1,Congruent,right,bad,right,good,6,0,1023
4,audio,audio,1,Control    ,right,good,right,good,7,1,1139
4,audio,audio,1,Control    ,left,bad,left,bad,8,1,1299
4,audio,audio,1,Congruent,left,good,left,bad,9,0,906
4,audio,audio,1,Congruent,right,bad,right,bad,10,1,864
4,audio,audio,1,Incongruent,right,good,right,good,11,1,1142
4,audio,audio,1,Incongruent,left,good,left,good,12,1,1043
4,audio,audio,1,Control    ,left,bad,left,bad,13,1,860
4,audio,audio,1,Control    ,left,good,left,bad,14,0,1958
4,audio,audio,1,Incongruent,right,good,right,bad,15,0,914
4,audio,audio,1,Incongruent,right,bad,right,good,16,0,860
4,audio,audio,1,Control    ,left,good,left,good,17,1,1031
4,audio,audio,1,Incongruent,right,good,right,bad,18,0,1042
4,audio,audio,1,Congruent,left,good,left,bad,19,0,1007
4,audio,audio,1,Control    ,left,good,left,good,20,1,1046
4,audio,audio,1,Incongruent,right,good,right,bad,21,0,1523
4,audio,audio,1,Control    ,right,good,right,good,22,1,1114
4,audio,audio,1,Congruent,right,good,right,good,23,1,1031
4,audio,audio,1,Congruent,right,good,right,good,24,1,762
4,audio,audio,1,Incongruent,left,good,left,good,25,1,738
4,audio,audio,1,Control    ,right,bad,right,good,26,0,902
4,audio,audio,1,Incongruent,left,good,left,good,27,1,778
4,audio,audio,1,Congruent,right,bad,right,bad,28,1,979
4,audio,audio,1,Congruent,right,bad,right,bad,29,1,1014
4,audio,audio,1,Incongruent,right,good,right,good,30,1,958
4,audio,audio,1,Control    ,right,bad,right,bad,31,1,942
4,audio,audio,1,Control    ,right,good,right,good,32,1,1187
4,audio,audio,1,Incongruent,left,bad,left,bad,33,1,979
4,audio,audio,1,Control    ,left,bad,left,bad,34,1,1012
4,audio,audio,1,Congruent,left,bad,left,bad,35,1,810
4,audio,audio,1,Congruent,right,good,right,good,36,1,1458
4,audio,audio,1,Congruent,left,good,left,good,37,1,1458
4,audio,audio,1,Congruent,right,bad,right,bad,38,1,814
4,audio,audio,1,Control    ,right,bad,right,good,39,0,967
4,audio,audio,1,Incongruent,right,good,right,good,40,1,1202
4,audio,audio,1,Control    ,left,bad,left,bad,41,1,999
4,audio,audio,1,Congruent,left,good,left,good,42,1,1044
4,audio,audio,1,Incongruent,right,bad,right,bad,43,1,1406
4,audio,audio,1,Incongruent,left,bad,left,bad,44,1,770
4,audio,audio,1,Congruent,left,good,left,good,45,1,1038
4,audio,audio,1,Control    ,right,good,right,good,46,1,802
4,audio,audio,1,Control    ,left,bad,left,good,47,0,702
4,audio,audio,1,Incongruent,right,bad,right,bad,48,1,1092
4,audio,audio,1,Congruent,left,good,left,good,49,1,954
4,audio,audio,1,Congruent,left,bad,left,bad,50,1,755
4,audio,audio,1,Control    ,left,good,left,good,51,1,1118
4,audio,audio,1,Control    ,left,good,left,good,52,1,962
4,audio,audio,1,Congruent,right,good,right,bad,53,0,818
4,audio,audio,1,Control    ,left,bad,left,good,54,0,875
4,audio,audio,1,Congruent,right,bad,right,bad,55,1,768
4,audio,audio,1,Congruent,left,good,left,good,56,1,870
4,audio,audio,1,Control    ,left,good,left,good,57,1,2423
4,audio,audio,1,Congruent,left,bad,left,bad,58,1,1106
4,audio,audio,1,Congruent,left,good,left,good,59,1,1670
4,audio,audio,1,Control    ,right,bad,right,bad,60,1,833
4,audio,audio,1,Congruent,left,bad,left,bad,61,1,1128
4,audio,audio,1,Incongruent,right,good,right,bad,62,0,990
4,audio,audio,1,Control    ,right,good,right,good,63,1,1303
4,audio,audio,1,Incongruent,right,bad,right,bad,64,1,786
4,audio,audio,1,Control    ,left,good,left,good,65,1,846
4,audio,audio,1,Congruent,right,good,right,good,66,1,742
4,audio,audio,1,Incongruent,left,good,left,good,67,1,1034
4,audio,audio,1,Incongruent,left,good,left,good,68,1,757
4,audio,audio,1,Incongruent,left,bad,left,bad,69,1,1042
4,audio,audio,1,Incongruent,left,bad,left,bad,70,1,861
4,audio,audio,1,Incongruent,right,bad,right,bad,71,1,979
4,audio,audio,1,Congruent,left,good,left,good,72,1,1342
4,audio,audio,1,Incongruent,left,good,left,good,73,1,874
4,audio,audio,1,Incongruent,left,good,left,good,74,1,868
4,audio,audio,1,Control    ,left,good,left,good,75,1,795
4,audio,audio,1,Congruent,right,bad,right,bad,76,1,855
4,audio,audio,1,Control    ,left,bad,left,bad,77,1,885
4,audio,audio,1,Incongruent,left,good,left,bad,78,0,962
4,audio,audio,1,Control    ,left,bad,left,bad,79,1,1010
4,audio,audio,1,Incongruent,right,bad,right,bad,80,1,831
4,audio,audio,1,Congruent,right,bad,right,bad,81,1,832
4,audio,audio,1,Control    ,right,bad,right,bad,82,1,870
4,audio,audio,1,Congruent,right,bad,right,bad,83,1,1182
4,audio,audio,1,Control    ,right,bad,right,bad,84,1,858
4,audio,audio,1,Congruent,left,good,left,good,85,1,988
4,audio,audio,1,Congruent,left,good,left,good,86,1,857
4,audio,audio,1,Congruent,left,good,left,good,87,1,733
4,audio,audio,1,Congruent,right,bad,right,bad,88,1,906
4,audio,audio,1,Congruent,right,good,right,good,89,1,834
4,audio,audio,1,Congruent,right,bad,right,bad,90,1,1054
4,audio,audio,1,Control    ,left,good,left,bad,91,0,846
4,audio,audio,1,Incongruent,right,good,right,good,92,1,765
4,audio,audio,1,Incongruent,left,good,left,good,93,1,753
4,audio,audio,1,Incongruent,left,good,left,good,94,1,688
4,audio,audio,1,Control    ,right,good,right,good,95,1,1404
4,audio,audio,1,Congruent,left,good,left,good,96,1,881
4,audio,audio,1,Control    ,left,bad,left,good,97,0,749
4,audio,audio,1,Congruent,left,bad,left,bad,98,1,1007
4,audio,audio,1,Congruent,right,good,right,good,99,1,922
4,audio,audio,1,Control    ,left,good,left,good,100,1,1187
4,audio,audio,1,Control    ,left,bad,left,bad,101,1,905
4,audio,audio,1,Incongruent,left,bad,left,bad,102,1,1706
4,audio,audio,1,Congruent,right,good,right,bad,103,0,796
4,audio,audio,1,Control    ,right,good,right,bad,104,0,1133
4,audio,audio,1,Congruent,left,good,left,good,105,1,785
4,audio,audio,1,Incongruent,right,good,right,good,106,1,738
4,audio,audio,1,Congruent,left,bad,left,bad,107,1,841
4,audio,audio,1,Congruent,right,bad,right,bad,108,1,869
4,audio,audio,1,Incongruent,left,bad,left,good,109,0,941
4,audio,audio,1,Congruent,left,good,left,good,110,1,973
4,audio,audio,1,Incongruent,right,good,right,good,111,1,965
4,audio,audio,1,Congruent,left,bad,left,bad,112,1,949
4,audio,audio,1,Congruent,left,bad,left,bad,113,1,1396
4,audio,audio,1,Incongruent,left,bad,left,bad,114,1,1309
4,audio,audio,1,Incongruent,right,bad,right,good,115,0,982
4,audio,audio,1,Congruent,left,bad,left,bad,116,1,822
4,audio,audio,1,Incongruent,left,good,left,good,117,1,969
4,audio,audio,1,Control    ,right,good,right,good,118,1,937
4,audio,audio,1,Congruent,left,bad,left,bad,119,1,837
4,audio,audio,1,Control    ,right,bad,right,bad,120,1,997
4,audio,audio,1,Control    ,left,bad,left,bad,121,1,995
4,audio,audio,1,Control    ,right,good,right,good,122,1,1208
4,audio,audio,1,Control    ,left,good,left,bad,123,0,1045
4,audio,audio,1,Control    ,left,bad,left,bad,124,1,1161
4,audio,audio,1,Control    ,right,good,right,good,125,1,1469
4,audio,audio,1,Incongruent,right,good,right,bad,126,0,797
4,audio,audio,1,Incongruent,right,good,right,good,127,1,957
4,audio,audio,1,Control    ,right,good,right,good,128,1,1504
4,audio,audio,1,Incongruent,left,bad,left,bad,129,1,1609
4,audio,audio,1,Congruent,left,good,left,good,130,1,1120
4,audio,audio,1,Control    ,right,good,right,good,131,1,889
4,audio,audio,1,Control    ,right,bad,right,bad,132,1,842
4,audio,audio,1,Incongruent,right,good,right,bad,133,0,1417
4,audio,audio,1,Congruent,left,bad,left,bad,134,1,725
4,audio,audio,1,Incongruent,left,good,left,bad,135,0,769
4,audio,audio,1,Incongruent,left,bad,left,bad,136,1,989
4,audio,audio,1,Incongruent,left,good,left,good,137,1,764
4,audio,audio,1,Incongruent,right,good,right,good,138,1,1045
4,audio,audio,1,Control    ,left,bad,left,bad,139,1,865
4,audio,audio,1,Incongruent,left,good,left,bad,140,0,1007
4,audio,audio,1,Control    ,left,good,left,good,141,1,1493
4,audio,audio,1,Incongruent,left,bad,left,bad,142,1,861
4,audio,audio,1,Control    ,left,good,left,bad,143,0,970
4,audio,audio,1,Incongruent,right,bad,right,bad,144,1,1633
4,audio,audio,1,Incongruent,left,bad,left,bad,145,1,1014
4,audio,audio,1,Control    ,right,bad,right,bad,146,1,1581
4,audio,audio,1,Congruent,left,good,left,good,147,1,1002
4,audio,audio,1,Incongruent,left,good,left,bad,148,0,708
4,audio,audio,1,Control    ,left,bad,left,bad,149,1,753
4,audio,audio,1,Congruent,left,good,left,good,150,1,909
4,audio,audio,2,Control    ,right,good,right,good,1,1,1915
4,audio,audio,2,Congruent,right,good,right,bad,2,0,703
4,audio,audio,2,Congruent,left,good,left,good,3,1,1059
4,audio,audio,2,Congruent,right,good,right,good,4,1,751
4,audio,audio,2,Control    ,right,bad,right,bad,5,1,951
4,audio,audio,2,Congruent,left,bad,left,bad,6,1,1172
4,audio,audio,2,Control    ,right,bad,right,bad,7,1,855
4,audio,audio,2,Control    ,left,good,left,bad,8,0,776
4,audio,audio,2,Incongruent,left,good,left,good,9,1,883
4,audio,audio,2,Incongruent,left,bad,left,bad,10,1,1071
4,audio,audio,2,Incongruent,left,bad,left,bad,11,1,1332
4,audio,audio,2,Incongruent,left,bad,left,bad,12,1,923
4,audio,audio,2,Congruent,left,good,left,good,13,1,1141
4,audio,audio,2,Incongruent,right,good,right,good,14,1,1042
4,audio,audio,2,Incongruent,right,good,right,good,15,1,735
4,audio,audio,2,Incongruent,left,good,left,good,16,1,767
4,audio,audio,2,Control    ,right,bad,right,bad,17,1,811
4,audio,audio,2,Control    ,right,good,right,good,18,1,1138
4,audio,audio,2,Incongruent,left,good,left,bad,19,0,1058
4,audio,audio,2,Incongruent,right,good,right,good,20,1,1015
4,audio,audio,2,Congruent,right,bad,right,bad,21,1,783
4,audio,audio,2,Control    ,left,bad,left,bad,22,1,919
4,audio,audio,2,Control    ,left,good,left,good,23,1,1520
4,audio,audio,2,Congruent,left,bad,left,bad,24,1,1339
4,audio,audio,2,Control    ,right,good,right,good,25,1,1594
4,audio,audio,2,Incongruent,right,good,right,good,26,1,839
4,audio,audio,2,Congruent,left,bad,left,bad,27,1,790
4,audio,audio,2,Congruent,left,bad,left,bad,28,1,763
4,audio,audio,2,Congruent,left,good,left,good,29,1,1087
4,audio,audio,2,Incongruent,right,bad,right,bad,30,1,822
4,audio,audio,2,Incongruent,left,good,left,good,31,1,911
4,audio,audio,2,Control    ,left,good,left,good,32,1,747
4,audio,audio,2,Incongruent,left,good,left,good,33,1,894
4,audio,audio,2,Control    ,left,bad,left,bad,34,1,894
4,audio,audio,2,Congruent,right,bad,right,bad,35,1,1276
4,audio,audio,2,Incongruent,right,good,right,good,36,1,1198
4,audio,audio,2,Control    ,right,good,right,good,37,1,915
4,audio,audio,2,Incongruent,right,good,right,good,38,1,1164
4,audio,audio,2,Control    ,left,bad,left,bad,39,1,967
4,audio,audio,2,Control    ,right,good,right,good,40,1,1094
4,audio,audio,2,Control    ,right,good,right,good,41,1,895
4,audio,audio,2,Incongruent,left,bad,left,good,42,0,1574
4,audio,audio,2,Incongruent,right,good,right,good,43,1,886
4,audio,audio,2,Congruent,right,bad,right,bad,44,1,1013
4,audio,audio,2,Incongruent,left,good,left,good,45,1,971
4,audio,audio,2,Control    ,right,good,right,good,46,1,1154
4,audio,audio,2,Control    ,left,bad,left,bad,47,1,879
4,audio,audio,2,Congruent,right,bad,right,good,48,0,819
4,audio,audio,2,Control    ,left,bad,left,bad,49,1,852
4,audio,audio,2,Control    ,right,bad,right,bad,50,1,790
4,audio,audio,2,Congruent,right,bad,right,bad,51,1,1822
4,audio,audio,2,Congruent,left,good,left,bad,52,0,962
4,audio,audio,2,Control    ,right,good,right,good,53,1,1009
4,audio,audio,2,Congruent,left,bad,left,bad,54,1,888
4,audio,audio,2,Congruent,left,good,left,good,55,1,886
4,audio,audio,2,Incongruent,right,bad,right,good,56,0,1480
4,audio,audio,2,Control    ,left,good,left,good,57,1,942
4,audio,audio,2,Congruent,left,bad,left,bad,58,1,991
4,audio,audio,2,Control    ,left,bad,left,bad,59,1,1135
4,audio,audio,2,Congruent,left,good,left,good,60,1,1154
4,audio,audio,2,Congruent,right,bad,right,bad,61,1,1907
4,audio,audio,2,Congruent,right,good,right,good,62,1,974
4,audio,audio,2,Congruent,left,bad,left,bad,63,1,1623
4,audio,audio,2,Incongruent,left,bad,left,good,64,0,1013
4,audio,audio,2,Control    ,right,bad,right,good,65,0,826
4,audio,audio,2,Control    ,right,good,right,good,66,1,1506
4,audio,audio,2,Congruent,right,good,right,good,67,1,1254
4,audio,audio,2,Incongruent,right,good,right,good,68,1,1198
4,audio,audio,2,Control    ,right,bad,right,bad,69,1,1743
4,audio,audio,2,Congruent,left,bad,left,good,70,0,1250
4,audio,audio,2,Congruent,left,good,left,good,71,1,949
4,audio,audio,2,Control    ,left,good,left,good,72,1,1163
4,audio,audio,2,Control    ,left,good,left,good,73,1,1699
4,audio,audio,2,Incongruent,right,bad,right,bad,74,1,996
4,audio,audio,2,Incongruent,left,good,left,bad,75,0,1683
4,audio,audio,2,Control    ,left,bad,left,bad,76,1,1158
4,audio,audio,2,Congruent,left,good,left,good,77,1,853
4,audio,audio,2,Congruent,right,bad,right,good,78,0,1034
4,audio,audio,2,Congruent,left,bad,left,good,79,0,1365
4,audio,audio,2,Congruent,right,bad,right,bad,80,1,1042
4,audio,audio,2,Congruent,left,bad,left,bad,81,1,770
4,audio,audio,2,Congruent,right,good,right,good,82,1,1218
4,audio,audio,2,Incongruent,left,good,left,good,83,1,674
4,audio,audio,2,Congruent,right,bad,right,bad,84,1,890
4,audio,audio,2,Incongruent,left,bad,left,bad,85,1,1462
4,audio,audio,2,Congruent,left,bad,left,bad,86,1,730
4,audio,audio,2,Incongruent,left,bad,left,bad,87,1,690
4,audio,audio,2,Incongruent,left,bad,left,bad,88,1,706
4,audio,audio,2,Incongruent,left,good,left,good,89,1,966
4,audio,audio,2,Control    ,left,bad,left,good,90,0,602
4,audio,audio,2,Congruent,right,bad,right,good,91,0,790
4,audio,audio,2,Congruent,right,good,right,good,92,1,926
4,audio,audio,2,Incongruent,left,bad,left,bad,93,1,1105
4,audio,audio,2,Congruent,right,good,right,good,94,1,861
4,audio,audio,2,Incongruent,right,good,right,good,95,1,725
4,audio,audio,2,Congruent,right,good,right,good,96,1,1579
4,audio,audio,2,Congruent,left,good,left,good,97,1,893
4,audio,audio,2,Incongruent,left,bad,left,bad,98,1,1130
4,audio,audio,2,Incongruent,right,good,right,good,99,1,1107
4,audio,audio,2,Congruent,right,bad,right,bad,100,1,1168
4,audio,audio,2,Congruent,right,good,right,good,101,1,849
4,audio,audio,2,Congruent,right,bad,right,bad,102,1,958
4,audio,audio,2,Incongruent,right,good,right,good,103,1,1042
4,audio,audio,2,Incongruent,left,bad,left,bad,104,1,1261
4,audio,audio,2,Control    ,left,bad,left,bad,105,1,1421
4,audio,audio,2,Control    ,right,bad,right,bad,106,1,2378
4,audio,audio,2,Control    ,right,good,right,bad,107,0,845
4,audio,audio,2,Congruent,left,bad,left,bad,108,1,1118
4,audio,audio,2,Control    ,right,bad,right,bad,109,1,961
4,audio,audio,2,Incongruent,left,bad,left,bad,110,1,1109
4,audio,audio,2,Congruent,left,good,left,bad,111,0,1001
4,audio,audio,2,Incongruent,right,good,right,good,112,1,617
4,audio,audio,2,Incongruent,right,good,right,good,113,1,629
4,audio,audio,2,Incongruent,left,good,left,good,114,1,797
4,audio,audio,2,Control    ,left,good,left,good,115,1,1034
4,audio,audio,2,Control    ,left,good,left,bad,116,0,1093
4,audio,audio,2,Incongruent,right,good,right,good,117,1,792
4,audio,audio,2,Incongruent,right,good,right,good,118,1,814
4,audio,audio,2,Control    ,right,good,right,good,119,1,941
4,audio,audio,2,Incongruent,right,bad,right,good,120,0,1181
4,audio,audio,2,Control    ,left,good,left,good,121,1,1261
4,audio,audio,2,Control    ,left,good,left,good,122,1,729
4,audio,audio,2,Incongruent,right,bad,right,good,123,0,861
4,audio,audio,2,Control    ,right,good,right,good,124,1,1525
4,audio,audio,2,Control    ,right,bad,right,bad,125,1,770
4,audio,audio,2,Control    ,left,bad,left,bad,126,1,1149
4,audio,audio,2,Congruent,right,good,right,good,127,1,1110
4,audio,audio,2,Control    ,left,good,left,good,128,1,954
4,audio,audio,2,Control    ,left,good,left,good,129,1,1041
4,audio,audio,2,Control    ,right,bad,right,bad,130,1,856
4,audio,audio,2,Incongruent,right,bad,right,bad,131,1,866
4,audio,audio,2,Incongruent,left,bad,left,bad,132,1,1019
4,audio,audio,2,Control    ,left,bad,left,bad,133,1,1313
4,audio,audio,2,Control    ,left,good,left,bad,134,0,777
4,audio,audio,2,Incongruent,left,good,left,good,135,1,933
4,audio,audio,2,Congruent,right,good,right,good,136,1,810
4,audio,audio,2,Congruent,right,bad,right,bad,137,1,862
4,audio,audio,2,Incongruent,right,bad,right,bad,138,1,857
4,audio,audio,2,Control    ,left,good,left,good,139,1,1029
4,audio,audio,2,Control    ,right,good,right,good,140,1,1573
4,audio,audio,2,Control    ,right,good,right,bad,141,0,1036
4,audio,audio,2,Congruent,right,good,right,good,142,1,1526
4,audio,audio,2,Congruent,left,good,left,bad,143,0,789
4,audio,audio,2,Incongruent,left,good,left,good,144,1,1069
4,audio,audio,2,Incongruent,right,good,right,good,145,1,728
4,audio,audio,2,Incongruent,left,good,left,good,146,1,797
4,audio,audio,2,Control    ,right,good,right,good,147,1,732
4,audio,audio,2,Congruent,right,bad,right,bad,148,1,1030
4,audio,audio,2,Congruent,right,good,right,bad,149,0,717
4,audio,audio,2,Incongruent,left,good,left,good,150,1,1285
4,audio,audio,3,Incongruent,left,good,left,good,1,1,1254
4,audio,audio,3,Congruent,right,bad,right,bad,2,1,868
4,audio,audio,3,Control    ,right,good,right,good,3,1,996
4,audio,audio,3,Incongruent,left,good,left,good,4,1,1827
4,audio,audio,3,Incongruent,right,good,right,bad,5,0,907
4,audio,audio,3,Control    ,right,good,right,good,6,1,1046
4,audio,audio,3,Congruent,left,bad,left,bad,7,1,822
4,audio,audio,3,Congruent,left,good,left,good,8,1,1231
4,audio,audio,3,Control    ,left,good,left,good,9,1,890
4,audio,audio,3,Control    ,left,bad,left,bad,10,1,1179
4,audio,audio,3,Control    ,right,good,right,good,11,1,987
4,audio,audio,3,Control    ,right,bad,right,bad,12,1,1075
4,audio,audio,3,Incongruent,right,good,right,good,13,1,810
4,audio,audio,3,Congruent,left,good,left,good,14,1,802
4,audio,audio,3,Congruent,right,good,right,good,15,1,1092
4,audio,audio,3,Incongruent,right,good,right,bad,16,0,774
4,audio,audio,3,Congruent,left,bad,left,bad,17,1,961
4,audio,audio,3,Incongruent,left,bad,left,bad,18,1,926
4,audio,audio,3,Incongruent,left,bad,left,bad,19,1,825
4,audio,audio,3,Control    ,right,good,right,good,20,1,695
4,audio,audio,3,Control    ,right,good,right,good,21,1,623
4,audio,audio,3,Congruent,right,bad,right,good,22,0,442
4,audio,audio,3,Congruent,left,bad,left,bad,23,1,803
4,audio,audio,3,Control    ,right,good,right,bad,24,0,842
4,audio,audio,3,Incongruent,left,bad,left,bad,25,1,702
4,audio,audio,3,Congruent,right,bad,right,bad,26,1,911
4,audio,audio,3,Congruent,right,good,right,good,27,1,798
4,audio,audio,3,Incongruent,right,good,right,good,28,1,749
4,audio,audio,3,Control    ,right,good,right,good,29,1,883
4,audio,audio,3,Control    ,left,bad,left,bad,30,1,875
4,audio,audio,3,Congruent,right,bad,right,good,31,0,820
4,audio,audio,3,Control    ,left,good,left,bad,32,0,1322
4,audio,audio,3,Congruent,left,good,left,good,33,1,1190
4,audio,audio,3,Incongruent,left,bad,left,good,34,0,930
4,audio,audio,3,Control    ,left,good,left,good,35,1,791
4,audio,audio,3,Incongruent,left,bad,left,good,36,0,1546
4,audio,audio,3,Incongruent,right,bad,right,bad,37,1,934
4,audio,audio,3,Incongruent,left,bad,left,bad,38,1,951
4,audio,audio,3,Incongruent,right,good,right,good,39,1,1167
4,audio,audio,3,Control    ,left,bad,left,bad,40,1,1258
4,audio,audio,3,Control    ,left,good,left,good,41,1,1411
4,audio,audio,3,Incongruent,left,good,left,bad,42,0,897
4,audio,audio,3,Control    ,right,bad,right,good,43,0,834
4,audio,audio,3,Incongruent,right,good,right,good,44,1,943
4,audio,audio,3,Incongruent,right,bad,right,good,45,0,1046
4,audio,audio,3,Incongruent,right,good,right,good,46,1,1534
4,audio,audio,3,Congruent,right,good,right,bad,47,0,778
4,audio,audio,3,Congruent,right,bad,right,good,48,0,834
4,audio,audio,3,Incongruent,right,bad,right,bad,49,1,1062
4,audio,audio,3,Control    ,left,bad,left,bad,50,1,861
4,audio,audio,3,Control    ,left,good,left,good,51,1,1001
4,audio,audio,3,Incongruent,right,bad,right,good,52,0,1042
4,audio,audio,3,Congruent,left,good,left,good,53,1,1005
4,audio,audio,3,Congruent,left,good,left,bad,54,0,906
4,audio,audio,3,Congruent,right,good,right,good,55,1,673
4,audio,audio,3,Incongruent,left,good,left,good,56,1,750
4,audio,audio,3,Incongruent,left,bad,left,good,57,0,1115
4,audio,audio,3,Control    ,left,bad,left,bad,58,1,1254
4,audio,audio,3,Control    ,left,good,left,good,59,1,958
4,audio,audio,3,Control    ,right,bad,right,bad,60,1,1118
4,audio,audio,3,Congruent,right,bad,right,good,61,0,932
4,audio,audio,3,Congruent,left,good,left,good,62,1,950
4,audio,audio,3,Congruent,left,good,left,good,63,1,885
4,audio,audio,3,Control    ,right,bad,right,bad,64,1,725
4,audio,audio,3,Congruent,right,bad,right,bad,65,1,765
4,audio,audio,3,Incongruent,right,good,right,good,66,1,895
4,audio,audio,3,Control    ,right,good,right,good,67,1,1051
4,audio,audio,3,Congruent,right,bad,right,bad,68,1,785
4,audio,audio,3,Congruent,right,bad,right,bad,69,1,1154
4,audio,audio,3,Incongruent,left,good,left,good,70,1,1186
4,audio,audio,3,Incongruent,right,bad,right,bad,71,1,950
4,audio,audio,3,Control    ,right,bad,right,bad,72,1,882
4,audio,audio,3,Control    ,right,bad,right,bad,73,1,875
4,audio,audio,3,Control    ,right,good,right,good,74,1,1403
4,audio,audio,3,Congruent,left,bad,left,bad,75,1,766
4,audio,audio,3,Congruent,right,bad,right,bad,76,1,1162
4,audio,audio,3,Control    ,right,good,right,good,77,1,1249
4,audio,audio,3,Incongruent,left,good,left,good,78,1,1477
4,audio,audio,3,Control    ,right,good,right,good,79,1,1018
4,audio,audio,3,Congruent,right,bad,right,bad,80,1,1284
4,audio,audio,3,Control    ,right,bad,right,good,81,0,1005
4,audio,audio,3,Incongruent,right,bad,right,good,82,0,1418
4,audio,audio,3,Congruent,left,bad,left,bad,83,1,1369
4,audio,audio,3,Control    ,left,bad,left,bad,84,1,1134
4,audio,audio,3,Incongruent,right,good,NaN,NaN,85,NaN,NaN
4,audio,audio,3,Congruent,right,bad,NaN,NaN,86,NaN,NaN
4,audio,audio,3,Congruent,right,good,right,good,87,1,1405
4,audio,audio,3,Congruent,left,bad,left,bad,88,1,965
4,audio,audio,3,Control    ,left,good,left,good,89,1,1141
4,audio,audio,3,Congruent,right,bad,right,bad,90,1,938
4,audio,audio,3,Congruent,right,bad,right,good,91,0,1008
4,audio,audio,3,Control    ,right,bad,right,bad,92,1,1814
4,audio,audio,3,Congruent,right,good,right,good,93,1,1605
4,audio,audio,3,Incongruent,left,bad,left,bad,94,1,974
4,audio,audio,3,Control    ,right,good,right,good,95,1,1103
4,audio,audio,3,Incongruent,right,good,right,bad,96,0,1200
4,audio,audio,3,Congruent,left,good,left,good,97,1,1874
4,audio,audio,3,Incongruent,left,bad,left,bad,98,1,1504
4,audio,audio,3,Control    ,left,bad,left,bad,99,1,801
4,audio,audio,3,Congruent,left,good,left,bad,100,0,1401
4,audio,audio,3,Incongruent,left,good,left,good,101,1,1221
4,audio,audio,3,Control    ,left,bad,left,bad,102,1,881
4,audio,audio,3,Congruent,right,good,right,good,103,1,1610
4,audio,audio,3,Incongruent,right,bad,right,bad,104,1,1893
4,audio,audio,3,Incongruent,left,bad,left,good,105,0,1552
4,audio,audio,3,Control    ,left,bad,left,bad,106,1,1928
4,audio,audio,3,Congruent,right,good,right,bad,107,0,805
4,audio,audio,3,Control    ,right,good,right,good,108,1,905
4,audio,audio,3,Control    ,left,good,left,good,109,1,874
4,audio,audio,3,Control    ,right,bad,right,bad,110,1,958
4,audio,audio,3,Incongruent,left,good,left,good,111,1,829
4,audio,audio,3,Incongruent,left,bad,left,good,112,0,1701
4,audio,audio,3,Incongruent,left,good,left,bad,113,0,780
4,audio,audio,3,Incongruent,left,bad,left,bad,114,1,1297
4,audio,audio,3,Incongruent,right,good,right,good,115,1,1076
4,audio,audio,3,Incongruent,left,bad,left,good,116,0,1397
4,audio,audio,3,Congruent,left,good,left,good,117,1,905
4,audio,audio,3,Control    ,right,bad,right,bad,118,1,834
4,audio,audio,3,Incongruent,left,good,left,good,119,1,782
4,audio,audio,3,Congruent,right,bad,right,bad,120,1,1724
4,audio,audio,3,Incongruent,right,bad,right,bad,121,1,780
4,audio,audio,3,Congruent,left,bad,left,bad,122,1,989
4,audio,audio,3,Congruent,left,bad,left,bad,123,1,956
4,audio,audio,3,Congruent,left,good,left,good,124,1,1452
4,audio,audio,3,Control    ,right,bad,right,bad,125,1,1901
4,audio,audio,3,Congruent,left,bad,left,bad,126,1,737
4,audio,audio,3,Control    ,right,bad,right,good,127,0,1295
4,audio,audio,3,Control    ,left,good,left,good,128,1,1050
4,audio,audio,3,Incongruent,left,bad,left,bad,129,1,1382
4,audio,audio,3,Incongruent,right,good,right,good,130,1,1051
4,audio,audio,3,Control    ,right,good,right,good,131,1,948
4,audio,audio,3,Congruent,left,bad,left,bad,132,1,913
4,audio,audio,3,Control    ,right,bad,right,bad,133,1,1669
4,audio,audio,3,Control    ,left,bad,left,bad,134,1,878
4,audio,audio,3,Incongruent,left,good,left,bad,135,0,1537
4,audio,audio,3,Control    ,right,bad,right,bad,136,1,764
4,audio,audio,3,Congruent,left,good,left,good,137,1,880
4,audio,audio,3,Incongruent,right,good,right,good,138,1,836
4,audio,audio,3,Congruent,right,bad,right,bad,139,1,969
4,audio,audio,3,Congruent,left,good,left,good,140,1,945
4,audio,audio,3,Incongruent,right,bad,right,bad,141,1,1076
4,audio,audio,3,Control    ,right,good,right,good,142,1,1120
4,audio,audio,3,Incongruent,right,good,right,bad,143,0,2246
4,audio,audio,3,Control    ,right,good,right,bad,144,0,732
4,audio,audio,3,Incongruent,left,bad,left,good,145,0,924
4,audio,audio,3,Congruent,right,bad,right,bad,146,1,1325
4,audio,audio,3,Control    ,left,bad,left,bad,147,1,853
4,audio,audio,3,Incongruent,left,good,left,good,148,1,920
4,audio,audio,3,Congruent,left,good,left,good,149,1,969
4,audio,audio,3,Congruent,left,good,left,good,150,1,756
4,audio,audio,4,Congruent,left,bad,left,bad,1,1,1829
4,audio,audio,4,Control    ,right,bad,right,bad,2,1,822
4,audio,audio,4,Control    ,left,good,left,bad,3,0,854
4,audio,audio,4,Congruent,right,bad,right,bad,4,1,890
4,audio,audio,4,Incongruent,right,good,right,good,5,1,792
4,audio,audio,4,Congruent,right,good,right,good,6,1,974
4,audio,audio,4,Incongruent,right,good,right,good,7,1,1414
4,audio,audio,4,Control    ,right,bad,right,bad,8,1,934
4,audio,audio,4,Congruent,left,bad,left,bad,9,1,854
4,audio,audio,4,Congruent,left,good,left,good,10,1,1854
4,audio,audio,4,Incongruent,right,good,right,bad,11,0,1233
4,audio,audio,4,Congruent,left,bad,left,good,12,0,981
4,audio,audio,4,Control    ,left,good,left,good,13,1,1285
4,audio,audio,4,Incongruent,left,bad,left,bad,14,1,801
4,audio,audio,4,Control    ,right,good,right,good,15,1,1311
4,audio,audio,4,Control    ,left,bad,left,bad,16,1,997
4,audio,audio,4,Incongruent,left,good,NaN,NaN,17,NaN,NaN
4,audio,audio,4,Congruent,left,bad,NaN,NaN,18,NaN,NaN
4,audio,audio,4,Incongruent,left,good,left,good,19,1,1031
4,audio,audio,4,Incongruent,right,good,right,good,20,1,1125
4,audio,audio,4,Congruent,left,bad,left,bad,21,1,1458
4,audio,audio,4,Congruent,right,good,right,bad,22,0,810
4,audio,audio,4,Control    ,left,bad,left,good,23,0,1626
4,audio,audio,4,Control    ,right,bad,right,bad,24,1,1190
4,audio,audio,4,Incongruent,right,bad,right,bad,25,1,917
4,audio,audio,4,Congruent,left,good,left,good,26,1,1318
4,audio,audio,4,Control    ,left,good,left,good,27,1,1317
4,audio,audio,4,Congruent,left,good,left,good,28,1,1009
4,audio,audio,4,Control    ,left,bad,left,bad,29,1,1018
4,audio,audio,4,Congruent,right,good,right,good,30,1,1081
4,audio,audio,4,Control    ,left,bad,left,bad,31,1,938
4,audio,audio,4,Incongruent,right,bad,right,bad,32,1,1145
4,audio,audio,4,Control    ,left,bad,left,bad,33,1,1041
4,audio,audio,4,Incongruent,left,bad,left,bad,34,1,929
4,audio,audio,4,Incongruent,right,good,right,good,35,1,1098
4,audio,audio,4,Congruent,right,bad,right,bad,36,1,1142
4,audio,audio,4,Incongruent,left,bad,left,good,37,0,1801
4,audio,audio,4,Incongruent,left,bad,left,good,38,0,1015
4,audio,audio,4,Congruent,right,good,right,good,39,1,1217
4,audio,audio,4,Control    ,left,bad,left,bad,40,1,794
4,audio,audio,4,Incongruent,right,bad,right,bad,41,1,1097
4,audio,audio,4,Incongruent,left,bad,left,bad,42,1,1170
4,audio,audio,4,Control    ,right,bad,right,bad,43,1,1002
4,audio,audio,4,Congruent,right,bad,right,bad,44,1,934
4,audio,audio,4,Control    ,right,good,right,good,45,1,1033
4,audio,audio,4,Congruent,right,good,right,good,46,1,1214
4,audio,audio,4,Incongruent,right,bad,right,bad,47,1,874
4,audio,audio,4,Control    ,left,bad,left,good,48,0,961
4,audio,audio,4,Congruent,left,good,left,good,49,1,2401
4,audio,audio,4,Control    ,left,bad,left,bad,50,1,1024
4,audio,audio,4,Congruent,left,good,left,good,51,1,1513
4,audio,audio,4,Control    ,left,good,left,good,52,1,1662
4,audio,audio,4,Incongruent,right,bad,right,bad,53,1,884
4,audio,audio,4,Incongruent,right,good,right,good,54,1,1369
4,audio,audio,4,Control    ,right,bad,right,bad,55,1,858
4,audio,audio,4,Incongruent,left,good,left,good,56,1,1729
4,audio,audio,4,Control    ,left,bad,left,bad,57,1,973
4,audio,audio,4,Incongruent,left,bad,left,bad,58,1,1218
4,audio,audio,4,Incongruent,right,good,right,good,59,1,1838
4,audio,audio,4,Incongruent,left,bad,left,bad,60,1,781
4,audio,audio,4,Congruent,right,bad,right,good,61,0,1128
4,audio,audio,4,Control    ,left,good,left,good,62,1,1746
4,audio,audio,4,Congruent,left,bad,left,bad,63,1,865
4,audio,audio,4,Control    ,left,good,left,bad,64,0,1509
4,audio,audio,4,Control    ,left,bad,left,bad,65,1,921
4,audio,audio,4,Congruent,left,good,left,good,66,1,1776
4,audio,audio,4,Congruent,left,bad,left,bad,67,1,1072
4,audio,audio,4,Incongruent,left,bad,left,bad,68,1,1106
4,audio,audio,4,Incongruent,right,good,right,bad,69,0,1351
4,audio,audio,4,Incongruent,right,bad,right,bad,70,1,1041
4,audio,audio,4,Congruent,right,good,right,good,71,1,1658
4,audio,audio,4,Congruent,right,bad,right,bad,72,1,909
4,audio,audio,4,Congruent,right,bad,right,bad,73,1,1056
4,audio,audio,4,Incongruent,left,bad,left,bad,74,1,1733
4,audio,audio,4,Control    ,left,bad,left,good,75,0,789
4,audio,audio,4,Control    ,right,bad,right,bad,76,1,1321
4,audio,audio,4,Control    ,right,bad,right,good,77,0,1046
4,audio,audio,4,Congruent,left,bad,left,bad,78,1,766
4,audio,audio,4,Congruent,left,good,left,good,79,1,1233
4,audio,audio,4,Incongruent,left,bad,left,bad,80,1,885
4,audio,audio,4,Incongruent,left,bad,left,bad,81,1,1148
4,audio,audio,4,Control    ,right,bad,right,bad,82,1,720
4,audio,audio,4,Incongruent,right,good,right,good,83,1,1133
4,audio,audio,4,Control    ,right,bad,right,bad,84,1,1453
4,audio,audio,4,Congruent,left,good,left,good,85,1,1320
4,audio,audio,4,Incongruent,left,good,left,good,86,1,1177
4,audio,audio,4,Congruent,right,bad,right,bad,87,1,965
4,audio,audio,4,Control    ,right,bad,right,good,88,0,1155
4,audio,audio,4,Incongruent,right,good,right,good,89,1,1189
4,audio,audio,4,Incongruent,right,bad,right,bad,90,1,1133
4,audio,audio,4,Control    ,right,good,right,good,91,1,1768
4,audio,audio,4,Incongruent,right,bad,right,bad,92,1,867
4,audio,audio,4,Congruent,right,good,right,good,93,1,1898
4,audio,audio,4,Incongruent,left,bad,left,bad,94,1,915
4,audio,audio,4,Incongruent,right,good,NaN,NaN,95,NaN,NaN
4,audio,audio,4,Control    ,left,good,NaN,NaN,96,NaN,NaN
4,audio,audio,4,Congruent,right,bad,right,bad,97,1,1531
4,audio,audio,4,Incongruent,left,good,left,bad,98,0,728
4,audio,audio,4,Control    ,right,bad,right,bad,99,1,913
4,audio,audio,4,Congruent,right,bad,right,bad,100,1,880
4,audio,audio,4,Control    ,right,bad,right,bad,101,1,1400
4,audio,audio,4,Congruent,left,good,left,good,102,1,1187
4,audio,audio,4,Control    ,right,good,right,good,103,1,1044
4,audio,audio,4,Incongruent,right,bad,right,bad,104,1,804
4,audio,audio,4,Incongruent,right,good,right,bad,105,0,1057
4,audio,audio,4,Congruent,right,bad,right,bad,106,1,1336
4,audio,audio,4,Congruent,left,bad,left,bad,107,1,828
4,audio,audio,4,Incongruent,left,good,left,good,108,1,1515
4,audio,audio,4,Control    ,right,bad,right,bad,109,1,881
4,audio,audio,4,Congruent,right,good,right,good,110,1,1137
4,audio,audio,4,Congruent,left,bad,left,bad,111,1,1109
4,audio,audio,4,Incongruent,right,good,right,good,112,1,1656
4,audio,audio,4,Incongruent,right,bad,right,bad,113,1,1048
4,audio,audio,4,Incongruent,left,good,left,good,114,1,1624
4,audio,audio,4,Congruent,left,bad,left,good,115,0,1503
4,audio,audio,4,Congruent,right,bad,right,bad,116,1,812
4,audio,audio,4,Incongruent,left,good,left,good,117,1,1044
4,audio,audio,4,Incongruent,left,bad,left,bad,118,1,848
4,audio,audio,4,Control    ,right,good,right,good,119,1,1092
4,audio,audio,4,Control    ,right,good,right,good,120,1,1432
4,audio,audio,4,Incongruent,left,bad,NaN,NaN,121,NaN,NaN
4,audio,audio,4,Control    ,right,bad,NaN,NaN,122,NaN,NaN
4,audio,audio,4,Control    ,left,bad,left,bad,123,1,1348
4,audio,audio,4,Congruent,right,bad,right,bad,124,1,745
4,audio,audio,4,Control    ,right,bad,right,bad,125,1,1240
4,audio,audio,4,Congruent,left,good,left,good,126,1,1107
4,audio,audio,4,Incongruent,left,good,left,good,127,1,904
4,audio,audio,4,Control    ,left,bad,left,bad,128,1,796
4,audio,audio,4,Control    ,left,good,left,good,129,1,1136
4,audio,audio,4,Control    ,right,bad,right,bad,130,1,871
4,audio,audio,4,Congruent,left,good,left,good,131,1,1504
4,audio,audio,4,Congruent,right,bad,right,bad,132,1,784
4,audio,audio,4,Incongruent,right,bad,right,good,133,0,1649
4,audio,audio,4,Control    ,left,good,left,good,134,1,1020
4,audio,audio,4,Congruent,left,bad,left,bad,135,1,975
4,audio,audio,4,Congruent,left,bad,left,bad,136,1,1556
4,audio,audio,4,Congruent,left,bad,left,bad,137,1,1043
4,audio,audio,4,Control    ,left,good,left,bad,138,0,1051
4,audio,audio,4,Control    ,left,good,left,good,139,1,1195
4,audio,audio,4,Congruent,left,good,left,good,140,1,1004
4,audio,audio,4,Congruent,left,good,left,good,141,1,884
4,audio,audio,4,Control    ,left,good,left,good,142,1,1316
4,audio,audio,4,Control    ,right,good,right,good,143,1,1136
4,audio,audio,4,Incongruent,right,good,right,good,144,1,1280
4,audio,audio,4,Control    ,right,good,right,good,145,1,1272
4,audio,audio,4,Incongruent,right,good,right,good,146,1,1380
4,audio,audio,4,Control    ,left,bad,left,bad,147,1,1034
4,audio,audio,4,Incongruent,left,bad,left,bad,148,1,986
4,audio,audio,4,Congruent,left,good,left,good,149,1,1352
4,audio,audio,4,Congruent,right,good,right,good,150,1,1108
4,audio,audio,5,Control    ,right,bad,right,bad,1,1,1588
4,audio,audio,5,Control    ,left,good,left,bad,2,0,811
4,audio,audio,5,Control    ,right,good,right,good,3,1,888
4,audio,audio,5,Incongruent,left,bad,left,bad,4,1,1174
4,audio,audio,5,Congruent,right,good,right,good,5,1,1035
4,audio,audio,5,Control    ,right,bad,right,bad,6,1,864
4,audio,audio,5,Control    ,right,good,right,good,7,1,1940
4,audio,audio,5,Incongruent,right,bad,right,bad,8,1,707
4,audio,audio,5,Incongruent,right,bad,right,bad,9,1,867
4,audio,audio,5,Control    ,left,good,left,good,10,1,900
4,audio,audio,5,Congruent,left,good,left,good,11,1,932
4,audio,audio,5,Incongruent,left,good,left,good,12,1,795
4,audio,audio,5,Incongruent,right,bad,right,bad,13,1,659
4,audio,audio,5,Incongruent,right,good,right,good,14,1,799
4,audio,audio,5,Incongruent,right,bad,right,good,15,0,1124
4,audio,audio,5,Control    ,right,good,right,good,16,1,747
4,audio,audio,5,Control    ,left,good,left,good,17,1,983
4,audio,audio,5,Congruent,right,good,right,good,18,1,1608
4,audio,audio,5,Congruent,left,bad,left,bad,19,1,1144
4,audio,audio,5,Control    ,right,bad,right,bad,20,1,875
4,audio,audio,5,Incongruent,left,bad,left,good,21,0,1136
4,audio,audio,5,Incongruent,right,good,right,good,22,1,1231
4,audio,audio,5,Incongruent,left,bad,left,bad,23,1,812
4,audio,audio,5,Congruent,right,good,right,bad,24,0,728
4,audio,audio,5,Congruent,right,good,right,good,25,1,779
4,audio,audio,5,Incongruent,left,bad,left,bad,26,1,1803
4,audio,audio,5,Congruent,right,good,right,bad,27,0,1055
4,audio,audio,5,Incongruent,left,good,left,good,28,1,802
4,audio,audio,5,Congruent,left,good,left,good,29,1,687
4,audio,audio,5,Incongruent,right,good,right,good,30,1,679
4,audio,audio,5,Control    ,right,bad,right,good,31,0,863
4,audio,audio,5,Incongruent,left,good,left,good,32,1,795
4,audio,audio,5,Incongruent,right,bad,right,bad,33,1,1103
4,audio,audio,5,Control    ,right,good,right,good,34,1,760
4,audio,audio,5,Incongruent,right,good,right,good,35,1,792
4,audio,audio,5,Control    ,left,bad,left,bad,36,1,864
4,audio,audio,5,Control    ,left,bad,left,good,37,0,1002
4,audio,audio,5,Control    ,left,good,left,good,38,1,1067
4,audio,audio,5,Control    ,left,bad,left,bad,39,1,1023
4,audio,audio,5,Congruent,left,bad,left,bad,40,1,1067
4,audio,audio,5,Control    ,left,good,left,bad,41,0,1863
4,audio,audio,5,Congruent,right,good,right,good,42,1,1439
4,audio,audio,5,Incongruent,right,good,right,bad,43,0,772
4,audio,audio,5,Congruent,right,good,right,good,44,1,1179
4,audio,audio,5,Incongruent,left,bad,left,bad,45,1,1315
4,audio,audio,5,Control    ,right,good,right,good,46,1,915
4,audio,audio,5,Congruent,left,bad,left,good,47,0,1344
4,audio,audio,5,Control    ,left,good,left,good,48,1,779
4,audio,audio,5,Incongruent,right,good,right,bad,49,0,1467
4,audio,audio,5,Control    ,right,good,right,good,50,1,934
4,audio,audio,5,Congruent,left,bad,left,bad,51,1,971
4,audio,audio,5,Congruent,right,bad,right,bad,52,1,1193
4,audio,audio,5,Congruent,right,good,right,good,53,1,1503
4,audio,audio,5,Congruent,left,bad,left,bad,54,1,987
4,audio,audio,5,Control    ,left,good,left,good,55,1,1164
4,audio,audio,5,Incongruent,right,good,right,bad,56,0,1157
4,audio,audio,5,Congruent,right,bad,right,bad,57,1,804
4,audio,audio,5,Incongruent,right,bad,right,good,58,0,1183
4,audio,audio,5,Incongruent,right,good,right,good,59,1,1543
4,audio,audio,5,Congruent,right,bad,right,bad,60,1,1086
4,audio,audio,5,Incongruent,right,good,right,good,61,1,1266
4,audio,audio,5,Control    ,right,bad,right,good,62,0,1176
4,audio,audio,5,Congruent,left,bad,left,bad,63,1,1980
4,audio,audio,5,Control    ,left,bad,left,bad,64,1,910
4,audio,audio,5,Control    ,left,bad,left,bad,65,1,1274
4,audio,audio,5,Control    ,left,bad,left,bad,66,1,895
4,audio,audio,5,Control    ,left,bad,left,bad,67,1,802
4,audio,audio,5,Incongruent,left,good,left,good,68,1,1306
4,audio,audio,5,Incongruent,left,bad,left,bad,69,1,1142
4,audio,audio,5,Control    ,right,bad,right,bad,70,1,1262
4,audio,audio,5,Control    ,left,good,left,good,71,1,1547
4,audio,audio,5,Incongruent,left,bad,left,bad,72,1,1158
4,audio,audio,5,Congruent,left,bad,left,bad,73,1,986
4,audio,audio,5,Incongruent,right,bad,right,bad,74,1,1133
4,audio,audio,5,Control    ,left,bad,left,bad,75,1,1355
4,audio,audio,5,Incongruent,right,bad,right,bad,76,1,1146
4,audio,audio,5,Congruent,left,good,left,good,77,1,1162
4,audio,audio,5,Incongruent,right,bad,right,good,78,0,1551
4,audio,audio,5,Incongruent,left,bad,left,bad,79,1,762
4,audio,audio,5,Control    ,right,good,right,good,80,1,1534
4,audio,audio,5,Control    ,left,good,left,good,81,1,1390
4,audio,audio,5,Congruent,right,good,right,bad,82,0,1194
4,audio,audio,5,Control    ,right,bad,right,bad,83,1,991
4,audio,audio,5,Incongruent,right,good,right,good,84,1,1916
4,audio,audio,5,Incongruent,right,bad,right,bad,85,1,871
4,audio,audio,5,Congruent,right,bad,right,bad,86,1,1251
4,audio,audio,5,Congruent,left,good,left,good,87,1,1519
4,audio,audio,5,Incongruent,right,good,NaN,NaN,88,NaN,NaN
4,audio,audio,5,Incongruent,left,good,NaN,NaN,89,NaN,NaN
4,audio,audio,5,Control    ,left,bad,left,bad,90,1,1433
4,audio,audio,5,Control    ,right,good,right,good,91,1,1283
4,audio,audio,5,Incongruent,left,bad,left,bad,92,1,1283
4,audio,audio,5,Congruent,left,good,left,good,93,1,1006
4,audio,audio,5,Incongruent,left,bad,right,good,94,0,1950
4,audio,audio,5,Control    ,right,good,right,good,95,1,1302
4,audio,audio,5,Incongruent,right,bad,right,bad,96,1,1026
4,audio,audio,5,Congruent,left,good,NaN,NaN,97,NaN,NaN
4,audio,audio,5,Congruent,right,good,NaN,NaN,98,NaN,NaN
4,audio,audio,5,Control    ,left,bad,left,bad,99,1,1005
4,audio,audio,5,Congruent,left,bad,left,bad,100,1,1583
4,audio,audio,5,Incongruent,left,bad,left,bad,101,1,803
4,audio,audio,5,Control    ,left,bad,left,bad,102,1,1759
4,audio,audio,5,Control    ,right,good,right,good,103,1,1510
4,audio,audio,5,Congruent,left,bad,left,good,104,0,1288
4,audio,audio,5,Congruent,right,bad,right,good,105,0,1594
4,audio,audio,5,Control    ,right,bad,right,bad,106,1,1066
4,audio,audio,5,Congruent,right,bad,right,bad,107,1,869
4,audio,audio,5,Control    ,left,bad,left,good,108,0,1101
4,audio,audio,5,Control    ,left,good,left,good,109,1,1198
4,audio,audio,5,Control    ,right,good,right,good,110,1,822
4,audio,audio,5,Incongruent,right,bad,right,bad,111,1,1674
4,audio,audio,5,Incongruent,right,good,right,bad,112,0,646
4,audio,audio,5,Control    ,left,bad,left,bad,113,1,913
4,audio,audio,5,Congruent,right,good,right,good,114,1,934
4,audio,audio,5,Congruent,left,bad,left,bad,115,1,826
4,audio,audio,5,Congruent,right,bad,right,bad,116,1,994
4,audio,audio,5,Control    ,right,good,right,good,117,1,1134
4,audio,audio,5,Control    ,left,good,left,bad,118,0,1018
4,audio,audio,5,Congruent,left,good,left,good,119,1,1148
4,audio,audio,5,Control    ,right,good,right,good,120,1,870
4,audio,audio,5,Incongruent,right,bad,right,good,121,0,1084
4,audio,audio,5,Incongruent,left,bad,left,bad,122,1,1620
4,audio,audio,5,Congruent,right,bad,right,bad,123,1,770
4,audio,audio,5,Congruent,left,good,left,good,124,1,1094
4,audio,audio,5,Control    ,left,good,left,bad,125,0,1293
4,audio,audio,5,Incongruent,left,bad,left,bad,126,1,1986
4,audio,audio,5,Congruent,left,good,left,bad,127,0,1001
4,audio,audio,5,Incongruent,right,good,right,good,128,1,1006
4,audio,audio,5,Congruent,right,bad,right,bad,129,1,1342
4,audio,audio,5,Congruent,left,bad,left,bad,130,1,1750
4,audio,audio,5,Incongruent,left,good,left,good,131,1,1038
4,audio,audio,5,Control    ,right,good,right,good,132,1,1242
4,audio,audio,5,Control    ,left,bad,left,bad,133,1,1561
4,audio,audio,5,Incongruent,left,good,left,bad,134,0,1125
4,audio,audio,5,Incongruent,left,good,left,good,135,1,1517
4,audio,audio,5,Congruent,left,good,left,good,136,1,1589
4,audio,audio,5,Congruent,right,good,right,bad,137,0,1266
4,audio,audio,5,Congruent,left,bad,left,good,138,0,1471
4,audio,audio,5,Incongruent,left,bad,left,good,139,0,1733
4,audio,audio,5,Congruent,left,bad,left,bad,140,1,905
4,audio,audio,5,Control    ,left,bad,left,good,141,0,1210
4,audio,audio,5,Congruent,right,good,right,bad,142,0,1493
4,audio,audio,5,Incongruent,left,good,left,good,143,1,1494
4,audio,audio,5,Congruent,left,good,left,good,144,1,1090
4,audio,audio,5,Congruent,left,bad,left,bad,145,1,1438
4,audio,audio,5,Incongruent,right,good,right,good,146,1,1382
4,audio,audio,5,Control    ,right,good,right,good,147,1,947
4,audio,audio,5,Congruent,right,bad,right,bad,148,1,1053
4,audio,audio,5,Congruent,right,good,right,good,149,1,1613
4,audio,audio,5,Congruent,left,good,left,bad,150,0,741
4,audio,audio,6,Congruent,right,bad,right,bad,1,1,1711
4,audio,audio,6,Control    ,left,bad,left,bad,2,1,912
4,audio,audio,6,Congruent,right,bad,right,bad,3,1,2144
4,audio,audio,6,Control    ,left,good,left,bad,4,0,824
4,audio,audio,6,Incongruent,left,bad,left,bad,5,1,735
4,audio,audio,6,Incongruent,left,good,left,good,6,1,1000
4,audio,audio,6,Congruent,left,bad,left,bad,7,1,1076
4,audio,audio,6,Control    ,right,bad,right,bad,8,1,1039
4,audio,audio,6,Congruent,right,bad,right,bad,9,1,1009
4,audio,audio,6,Control    ,right,bad,right,bad,10,1,1023
4,audio,audio,6,Incongruent,left,good,left,good,11,1,852
4,audio,audio,6,Incongruent,left,bad,left,bad,12,1,1083
4,audio,audio,6,Incongruent,right,bad,right,bad,13,1,788
4,audio,audio,6,Congruent,right,bad,right,bad,14,1,1294
4,audio,audio,6,Incongruent,right,good,right,bad,15,0,1287
4,audio,audio,6,Congruent,left,good,left,good,16,1,947
4,audio,audio,6,Congruent,right,bad,right,bad,17,1,791
4,audio,audio,6,Control    ,right,good,right,good,18,1,1088
4,audio,audio,6,Congruent,left,bad,left,bad,19,1,1347
4,audio,audio,6,Control    ,right,good,right,good,20,1,1208
4,audio,audio,6,Incongruent,right,bad,right,bad,21,1,1364
4,audio,audio,6,Control    ,right,bad,right,bad,22,1,899
4,audio,audio,6,Incongruent,left,good,left,good,23,1,1117
4,audio,audio,6,Incongruent,left,bad,left,bad,24,1,1363
4,audio,audio,6,Incongruent,left,bad,left,bad,25,1,1138
4,audio,audio,6,Congruent,left,bad,left,bad,26,1,1079
4,audio,audio,6,Congruent,right,good,right,good,27,1,1048
4,audio,audio,6,Congruent,right,good,right,good,28,1,1119
4,audio,audio,6,Control    ,right,bad,right,bad,29,1,1071
4,audio,audio,6,Congruent,right,bad,right,bad,30,1,1754
4,audio,audio,6,Incongruent,right,good,right,bad,31,0,1243
4,audio,audio,6,Control    ,left,good,left,good,32,1,1154
4,audio,audio,6,Control    ,left,bad,left,bad,33,1,853
4,audio,audio,6,Incongruent,right,good,right,good,34,1,862
4,audio,audio,6,Congruent,right,bad,right,bad,35,1,1188
4,audio,audio,6,Incongruent,left,bad,left,bad,36,1,1403
4,audio,audio,6,Control    ,right,good,right,good,37,1,1138
4,audio,audio,6,Control    ,left,bad,left,bad,38,1,751
4,audio,audio,6,Congruent,left,bad,left,bad,39,1,926
4,audio,audio,6,Control    ,right,good,right,good,40,1,1142
4,audio,audio,6,Incongruent,right,bad,right,good,41,0,1195
4,audio,audio,6,Congruent,left,bad,left,bad,42,1,2195
4,audio,audio,6,Incongruent,left,bad,left,bad,43,1,850
4,audio,audio,6,Congruent,left,good,left,good,44,1,1120
4,audio,audio,6,Incongruent,right,bad,right,good,45,0,1079
4,audio,audio,6,Incongruent,left,good,left,good,46,1,1192
4,audio,audio,6,Control    ,left,good,left,good,47,1,1315
4,audio,audio,6,Congruent,left,bad,left,bad,48,1,1218
4,audio,audio,6,Control    ,right,good,right,good,49,1,1058
4,audio,audio,6,Incongruent,left,good,left,bad,50,0,1138
4,audio,audio,6,Incongruent,left,bad,left,bad,51,1,1306
4,audio,audio,6,Incongruent,left,bad,left,bad,52,1,1262
4,audio,audio,6,Incongruent,right,good,right,good,53,1,1050
4,audio,audio,6,Congruent,left,good,left,good,54,1,1434
4,audio,audio,6,Incongruent,left,bad,left,bad,55,1,1092
4,audio,audio,6,Control    ,left,bad,left,bad,56,1,986
4,audio,audio,6,Incongruent,right,good,right,good,57,1,1607
4,audio,audio,6,Control    ,left,good,left,good,58,1,1510
4,audio,audio,6,Congruent,left,bad,left,bad,59,1,1247
4,audio,audio,6,Congruent,right,good,right,good,60,1,1213
4,audio,audio,6,Incongruent,left,good,left,good,61,1,1604
4,audio,audio,6,Incongruent,right,good,right,good,62,1,1210
4,audio,audio,6,Congruent,left,good,left,good,63,1,1391
4,audio,audio,6,Congruent,right,bad,right,good,64,0,879
4,audio,audio,6,Congruent,right,good,right,good,65,1,1006
4,audio,audio,6,Congruent,right,bad,right,bad,66,1,1723
4,audio,audio,6,Control    ,left,bad,left,bad,67,1,837
4,audio,audio,6,Congruent,right,good,right,good,68,1,1069
4,audio,audio,6,Incongruent,right,bad,right,bad,69,1,1429
4,audio,audio,6,Control    ,left,good,left,good,70,1,1298
4,audio,audio,6,Control    ,right,bad,right,bad,71,1,954
4,audio,audio,6,Control    ,left,bad,left,bad,72,1,907
4,audio,audio,6,Congruent,left,good,left,good,73,1,1251
4,audio,audio,6,Control    ,left,bad,left,bad,74,1,1074
4,audio,audio,6,Incongruent,left,good,left,good,75,1,1189
4,audio,audio,6,Incongruent,left,good,left,good,76,1,1786
4,audio,audio,6,Congruent,right,bad,right,bad,77,1,958
4,audio,audio,6,Congruent,right,bad,right,bad,78,1,963
4,audio,audio,6,Control    ,left,good,left,good,79,1,986
4,audio,audio,6,Congruent,left,bad,left,bad,80,1,931
4,audio,audio,6,Control    ,left,bad,left,bad,81,1,1427
4,audio,audio,6,Congruent,right,bad,right,bad,82,1,1210
4,audio,audio,6,Congruent,left,good,left,good,83,1,1310
4,audio,audio,6,Congruent,left,bad,left,bad,84,1,1035
4,audio,audio,6,Congruent,right,bad,right,bad,85,1,766
4,audio,audio,6,Control    ,right,bad,right,bad,86,1,683
4,audio,audio,6,Congruent,left,bad,left,bad,87,1,706
4,audio,audio,6,Control    ,right,bad,right,bad,88,1,1393
4,audio,audio,6,Incongruent,right,bad,right,good,89,0,858
4,audio,audio,6,Control    ,right,bad,right,good,90,0,1662
4,audio,audio,6,Control    ,left,bad,left,bad,91,1,804
4,audio,audio,6,Congruent,right,bad,right,bad,92,1,1414
4,audio,audio,6,Incongruent,left,bad,left,bad,93,1,866
4,audio,audio,6,Control    ,left,good,left,good,94,1,1185
4,audio,audio,6,Control    ,right,good,right,good,95,1,986
4,audio,audio,6,Congruent,right,good,right,good,96,1,986
4,audio,audio,6,Incongruent,right,bad,right,bad,97,1,1063
4,audio,audio,6,Incongruent,left,good,left,good,98,1,1006
4,audio,audio,6,Control    ,right,bad,right,bad,99,1,1109
4,audio,audio,6,Control    ,left,good,left,bad,100,0,861
4,audio,audio,6,Congruent,right,good,right,good,101,1,969
4,audio,audio,6,Incongruent,left,bad,left,bad,102,1,882
4,audio,audio,6,Incongruent,left,bad,left,bad,103,1,921
4,audio,audio,6,Control    ,left,bad,left,bad,104,1,997
4,audio,audio,6,Congruent,left,bad,left,bad,105,1,770
4,audio,audio,6,Incongruent,right,good,right,good,106,1,1610
4,audio,audio,6,Incongruent,right,bad,right,bad,107,1,800
4,audio,audio,6,Incongruent,right,good,right,good,108,1,1446
4,audio,audio,6,Incongruent,right,good,right,bad,109,0,930
4,audio,audio,6,Control    ,right,good,right,good,110,1,1309
4,audio,audio,6,Control    ,left,bad,left,bad,111,1,1046
4,audio,audio,6,Control    ,left,bad,left,bad,112,1,1391
4,audio,audio,6,Incongruent,left,good,left,good,113,1,1646
4,audio,audio,6,Congruent,right,good,right,good,114,1,1133
4,audio,audio,6,Control    ,left,bad,left,bad,115,1,962
4,audio,audio,6,Control    ,right,bad,right,bad,116,1,1345
4,audio,audio,6,Congruent,right,good,right,good,117,1,1227
4,audio,audio,6,Incongruent,right,good,right,good,118,1,1435
4,audio,audio,6,Incongruent,right,bad,right,good,119,0,1458
4,audio,audio,6,Congruent,left,bad,left,good,120,0,997
4,audio,audio,6,Congruent,left,bad,left,bad,121,1,1144
4,audio,audio,6,Incongruent,left,bad,left,bad,122,1,1081
4,audio,audio,6,Congruent,left,good,left,good,123,1,1269
4,audio,audio,6,Congruent,right,good,right,good,124,1,1368
4,audio,audio,6,Congruent,right,bad,right,bad,125,1,1829
4,audio,audio,6,Congruent,right,bad,right,bad,126,1,989
4,audio,audio,6,Control    ,left,bad,left,bad,127,1,1435
4,audio,audio,6,Control    ,left,bad,left,bad,128,1,906
4,audio,audio,6,Control    ,left,bad,left,bad,129,1,1613
4,audio,audio,6,Control    ,right,good,right,bad,130,0,1117
4,audio,audio,6,Incongruent,left,bad,left,bad,131,1,878
4,audio,audio,6,Incongruent,right,bad,right,bad,132,1,1505
4,audio,audio,6,Control    ,left,good,left,bad,133,0,902
4,audio,audio,6,Congruent,left,bad,left,bad,134,1,1861
4,audio,audio,6,Incongruent,right,good,NaN,NaN,135,NaN,NaN
4,audio,audio,6,Control    ,left,good,NaN,NaN,136,NaN,NaN
4,audio,audio,6,Incongruent,left,bad,left,bad,137,1,1564
4,audio,audio,6,Incongruent,right,good,right,bad,138,0,849
4,audio,audio,6,Control    ,right,good,right,good,139,1,1028
4,audio,audio,6,Incongruent,right,good,right,good,140,1,790
4,audio,audio,6,Control    ,left,good,left,good,141,1,1368
4,audio,audio,6,Incongruent,right,bad,right,bad,142,1,828
4,audio,audio,6,Control    ,right,bad,right,bad,143,1,1494
4,audio,audio,6,Congruent,left,good,left,good,144,1,1173
4,audio,audio,6,Incongruent,right,good,right,good,145,1,1997
4,audio,audio,6,Congruent,right,bad,right,bad,146,1,961
4,audio,audio,6,Control    ,right,bad,right,bad,147,1,1094
4,audio,audio,6,Congruent,right,good,right,bad,148,0,1018
4,audio,audio,6,Control    ,right,good,right,good,149,1,740
4,audio,audio,6,Control    ,left,good,left,good,150,1,1133
5,audio,audio,1,Incongruent,right,good,right,good,1,1,810
5,audio,audio,1,Congruent,left,good,left,good,2,1,859
5,audio,audio,1,Control    ,left,good,left,good,3,1,806
5,audio,audio,1,Control    ,left,bad,left,bad,4,1,787
5,audio,audio,1,Incongruent,left,bad,left,bad,5,1,773
5,audio,audio,1,Congruent,right,bad,right,bad,6,1,1002
5,audio,audio,1,Control    ,right,good,right,good,7,1,853
5,audio,audio,1,Control    ,left,bad,left,bad,8,1,922
5,audio,audio,1,Congruent,left,good,left,bad,9,0,910
5,audio,audio,1,Congruent,right,bad,right,bad,10,1,813
5,audio,audio,1,Incongruent,right,good,right,bad,11,0,954
5,audio,audio,1,Incongruent,left,good,left,bad,12,0,979
5,audio,audio,1,Control    ,left,bad,left,bad,13,1,897
5,audio,audio,1,Control    ,left,good,left,good,14,1,902
5,audio,audio,1,Incongruent,right,good,right,good,15,1,910
5,audio,audio,1,Incongruent,right,bad,right,bad,16,1,674
5,audio,audio,1,Control    ,left,good,left,good,17,1,841
5,audio,audio,1,Incongruent,right,good,right,good,18,1,882
5,audio,audio,1,Congruent,left,good,left,good,19,1,866
5,audio,audio,1,Control    ,left,good,left,good,20,1,810
5,audio,audio,1,Incongruent,right,good,right,good,21,1,786
5,audio,audio,1,Control    ,right,good,right,good,22,1,877
5,audio,audio,1,Congruent,right,good,right,good,23,1,789
5,audio,audio,1,Congruent,right,good,right,good,24,1,726
5,audio,audio,1,Incongruent,left,good,left,good,25,1,1002
5,audio,audio,1,Control    ,right,bad,right,bad,26,1,841
5,audio,audio,1,Incongruent,left,good,left,bad,27,0,790
5,audio,audio,1,Congruent,right,bad,right,bad,28,1,874
5,audio,audio,1,Congruent,right,bad,right,bad,29,1,963
5,audio,audio,1,Incongruent,right,good,right,good,30,1,924
5,audio,audio,1,Control    ,right,bad,right,bad,31,1,790
5,audio,audio,1,Control    ,right,good,right,good,32,1,859
5,audio,audio,1,Incongruent,left,bad,left,good,33,0,801
5,audio,audio,1,Control    ,left,bad,left,bad,34,1,1025
5,audio,audio,1,Congruent,left,bad,left,bad,35,1,850
5,audio,audio,1,Congruent,right,good,right,good,36,1,941
5,audio,audio,1,Congruent,left,good,left,bad,37,0,797
5,audio,audio,1,Congruent,right,bad,right,bad,38,1,845
5,audio,audio,1,Control    ,right,bad,right,bad,39,1,729
5,audio,audio,1,Incongruent,right,good,right,good,40,1,1110
5,audio,audio,1,Control    ,left,bad,left,bad,41,1,974
5,audio,audio,1,Congruent,left,good,left,good,42,1,966
5,audio,audio,1,Incongruent,right,bad,right,bad,43,1,846
5,audio,audio,1,Incongruent,left,bad,left,bad,44,1,1001
5,audio,audio,1,Congruent,left,good,left,bad,45,0,801
5,audio,audio,1,Control    ,right,good,right,good,46,1,878
5,audio,audio,1,Control    ,left,bad,left,bad,47,1,966
5,audio,audio,1,Incongruent,right,bad,right,bad,48,1,1093
5,audio,audio,1,Congruent,left,good,left,good,49,1,942
5,audio,audio,1,Congruent,left,bad,left,bad,50,1,774
5,audio,audio,1,Control    ,left,good,left,good,51,1,797
5,audio,audio,1,Control    ,left,good,left,good,52,1,830
5,audio,audio,1,Congruent,right,good,right,good,53,1,897
5,audio,audio,1,Control    ,left,bad,left,bad,54,1,749
5,audio,audio,1,Congruent,right,bad,right,good,55,0,861
5,audio,audio,1,Congruent,left,good,left,good,56,1,941
5,audio,audio,1,Control    ,left,good,left,good,57,1,1110
5,audio,audio,1,Congruent,left,bad,left,bad,58,1,1090
5,audio,audio,1,Congruent,left,good,left,good,59,1,945
5,audio,audio,1,Control    ,right,bad,right,good,60,0,888
5,audio,audio,1,Congruent,left,bad,left,bad,61,1,1056
5,audio,audio,1,Incongruent,right,good,right,bad,62,0,901
5,audio,audio,1,Control    ,right,good,right,good,63,1,925
5,audio,audio,1,Incongruent,right,bad,right,bad,64,1,753
5,audio,audio,1,Control    ,left,good,left,good,65,1,809
5,audio,audio,1,Congruent,right,good,right,bad,66,0,985
5,audio,audio,1,Incongruent,left,good,left,good,67,1,1300
5,audio,audio,1,Incongruent,left,good,left,bad,68,0,997
5,audio,audio,1,Incongruent,left,bad,left,bad,69,1,933
5,audio,audio,1,Incongruent,left,bad,left,bad,70,1,841
5,audio,audio,1,Incongruent,right,bad,right,bad,71,1,872
5,audio,audio,1,Congruent,left,good,left,good,72,1,805
5,audio,audio,1,Incongruent,left,good,left,good,73,1,938
5,audio,audio,1,Incongruent,left,good,left,good,74,1,870
5,audio,audio,1,Control    ,left,good,left,good,75,1,1049
5,audio,audio,1,Congruent,right,bad,right,bad,76,1,773
5,audio,audio,1,Control    ,left,bad,left,bad,77,1,921
5,audio,audio,1,Incongruent,left,good,left,good,78,1,1049
5,audio,audio,1,Control    ,left,bad,left,bad,79,1,857
5,audio,audio,1,Incongruent,right,bad,right,good,80,0,1117
5,audio,audio,1,Congruent,right,bad,right,bad,81,1,944
5,audio,audio,1,Control    ,right,bad,right,bad,82,1,1061
5,audio,audio,1,Congruent,right,bad,right,bad,83,1,817
5,audio,audio,1,Control    ,right,bad,right,bad,84,1,885
5,audio,audio,1,Congruent,left,good,left,good,85,1,1032
5,audio,audio,1,Congruent,left,good,left,good,86,1,816
5,audio,audio,1,Congruent,left,good,left,good,87,1,801
5,audio,audio,1,Congruent,right,bad,right,good,88,0,1021
5,audio,audio,1,Congruent,right,good,right,good,89,1,972
5,audio,audio,1,Congruent,right,bad,right,bad,90,1,934
5,audio,audio,1,Control    ,left,good,left,good,91,1,777
5,audio,audio,1,Incongruent,right,good,right,good,92,1,877
5,audio,audio,1,Incongruent,left,good,left,good,93,1,828
5,audio,audio,1,Incongruent,left,good,left,good,94,1,1069
5,audio,audio,1,Control    ,right,good,right,good,95,1,857
5,audio,audio,1,Congruent,left,good,left,good,96,1,904
5,audio,audio,1,Control    ,left,bad,left,bad,97,1,745
5,audio,audio,1,Congruent,left,bad,left,bad,98,1,788
5,audio,audio,1,Congruent,right,good,right,good,99,1,821
5,audio,audio,1,Control    ,left,good,left,good,100,1,709
5,audio,audio,1,Control    ,left,bad,left,bad,101,1,897
5,audio,audio,1,Incongruent,left,bad,left,bad,102,1,1108
5,audio,audio,1,Congruent,right,good,right,bad,103,0,897
5,audio,audio,1,Control    ,right,good,right,good,104,1,1025
5,audio,audio,1,Congruent,left,good,left,bad,105,0,994
5,audio,audio,1,Incongruent,right,good,right,good,106,1,1020
5,audio,audio,1,Congruent,left,bad,left,bad,107,1,868
5,audio,audio,1,Congruent,right,bad,right,bad,108,1,1022
5,audio,audio,1,Incongruent,left,bad,left,bad,109,1,1001
5,audio,audio,1,Congruent,left,good,left,good,110,1,929
5,audio,audio,1,Incongruent,right,good,right,good,111,1,860
5,audio,audio,1,Congruent,left,bad,left,bad,112,1,740
5,audio,audio,1,Congruent,left,bad,left,bad,113,1,767
5,audio,audio,1,Incongruent,left,bad,left,bad,114,1,972
5,audio,audio,1,Incongruent,right,bad,right,bad,115,1,836
5,audio,audio,1,Congruent,left,bad,left,bad,116,1,748
5,audio,audio,1,Incongruent,left,good,left,good,117,1,1017
5,audio,audio,1,Control    ,right,good,right,good,118,1,940
5,audio,audio,1,Congruent,left,bad,left,bad,119,1,717
5,audio,audio,1,Control    ,right,bad,right,bad,120,1,1172
5,audio,audio,1,Control    ,left,bad,left,bad,121,1,1180
5,audio,audio,1,Control    ,right,good,right,good,122,1,1180
5,audio,audio,1,Control    ,left,good,left,good,123,1,915
5,audio,audio,1,Control    ,left,bad,left,bad,124,1,848
5,audio,audio,1,Control    ,right,good,right,good,125,1,937
5,audio,audio,1,Incongruent,right,good,right,bad,126,0,1128
5,audio,audio,1,Incongruent,right,good,right,bad,127,0,1077
5,audio,audio,1,Control    ,right,good,right,good,128,1,956
5,audio,audio,1,Incongruent,left,bad,left,bad,129,1,965
5,audio,audio,1,Congruent,left,good,left,good,130,1,999
5,audio,audio,1,Control    ,right,good,right,good,131,1,983
5,audio,audio,1,Control    ,right,bad,right,bad,132,1,895
5,audio,audio,1,Incongruent,right,good,right,good,133,1,978
5,audio,audio,1,Congruent,left,bad,left,bad,134,1,785
5,audio,audio,1,Incongruent,left,good,left,bad,135,0,828
5,audio,audio,1,Incongruent,left,bad,left,bad,136,1,1035
5,audio,audio,1,Incongruent,left,good,left,good,137,1,893
5,audio,audio,1,Incongruent,right,good,right,good,138,1,1036
5,audio,audio,1,Control    ,left,bad,left,bad,139,1,860
5,audio,audio,1,Incongruent,left,good,left,bad,140,0,824
5,audio,audio,1,Control    ,left,good,left,good,141,1,896
5,audio,audio,1,Incongruent,left,bad,left,good,142,0,964
5,audio,audio,1,Control    ,left,good,left,good,143,1,964
5,audio,audio,1,Incongruent,right,bad,right,bad,144,1,824
5,audio,audio,1,Incongruent,left,bad,left,bad,145,1,807
5,audio,audio,1,Control    ,right,bad,right,bad,146,1,1215
5,audio,audio,1,Congruent,left,good,left,bad,147,0,1163
5,audio,audio,1,Incongruent,left,good,left,good,148,1,1259
5,audio,audio,1,Control    ,left,bad,left,bad,149,1,967
5,audio,audio,1,Congruent,left,good,left,bad,150,0,1080
5,audio,audio,2,Control    ,right,good,right,good,1,1,854
5,audio,audio,2,Congruent,right,good,right,good,2,1,761
5,audio,audio,2,Congruent,left,good,left,good,3,1,802
5,audio,audio,2,Congruent,right,good,right,good,4,1,981
5,audio,audio,2,Control    ,right,bad,right,bad,5,1,739
5,audio,audio,2,Congruent,left,bad,left,bad,6,1,754
5,audio,audio,2,Control    ,right,bad,right,bad,7,1,653
5,audio,audio,2,Control    ,left,good,left,good,8,1,733
5,audio,audio,2,Incongruent,left,good,left,bad,9,0,796
5,audio,audio,2,Incongruent,left,bad,left,bad,10,1,942
5,audio,audio,2,Incongruent,left,bad,left,bad,11,1,1036
5,audio,audio,2,Incongruent,left,bad,left,bad,12,1,830
5,audio,audio,2,Congruent,left,good,left,bad,13,0,865
5,audio,audio,2,Incongruent,right,good,right,bad,14,0,1133
5,audio,audio,2,Incongruent,right,good,right,bad,15,0,1056
5,audio,audio,2,Incongruent,left,good,left,good,16,1,1020
5,audio,audio,2,Control    ,right,bad,right,bad,17,1,967
5,audio,audio,2,Control    ,right,good,right,good,18,1,1084
5,audio,audio,2,Incongruent,left,good,left,good,19,1,1009
5,audio,audio,2,Incongruent,right,good,right,good,20,1,1011
5,audio,audio,2,Congruent,right,bad,right,bad,21,1,961
5,audio,audio,2,Control    ,left,bad,left,bad,22,1,1125
5,audio,audio,2,Control    ,left,good,left,good,23,1,1085
5,audio,audio,2,Congruent,left,bad,left,bad,24,1,869
5,audio,audio,2,Control    ,right,good,right,good,25,1,828
5,audio,audio,2,Incongruent,right,good,right,good,26,1,1040
5,audio,audio,2,Congruent,left,bad,left,bad,27,1,652
5,audio,audio,2,Congruent,left,bad,left,bad,28,1,882
5,audio,audio,2,Congruent,left,good,left,good,29,1,1117
5,audio,audio,2,Incongruent,right,bad,right,bad,30,1,829
5,audio,audio,2,Incongruent,left,good,left,good,31,1,960
5,audio,audio,2,Control    ,left,good,left,good,32,1,833
5,audio,audio,2,Incongruent,left,good,left,good,33,1,936
5,audio,audio,2,Control    ,left,bad,left,bad,34,1,955
5,audio,audio,2,Congruent,right,bad,right,bad,35,1,852
5,audio,audio,2,Incongruent,right,good,right,bad,36,0,680
5,audio,audio,2,Control    ,right,good,right,good,37,1,880
5,audio,audio,2,Incongruent,right,good,right,bad,38,0,696
5,audio,audio,2,Control    ,left,bad,left,good,39,0,1069
5,audio,audio,2,Control    ,right,good,right,good,40,1,944
5,audio,audio,2,Control    ,right,good,right,good,41,1,971
5,audio,audio,2,Incongruent,left,bad,left,bad,42,1,1100
5,audio,audio,2,Incongruent,right,good,right,good,43,1,948
5,audio,audio,2,Congruent,right,bad,right,bad,44,1,629
5,audio,audio,2,Incongruent,left,good,left,good,45,1,889
5,audio,audio,2,Control    ,right,good,right,good,46,1,872
5,audio,audio,2,Control    ,left,bad,left,bad,47,1,1008
5,audio,audio,2,Congruent,right,bad,right,bad,48,1,1145
5,audio,audio,2,Control    ,left,bad,left,bad,49,1,944
5,audio,audio,2,Control    ,right,bad,right,bad,50,1,1416
5,audio,audio,2,Congruent,right,bad,right,bad,51,1,959
5,audio,audio,2,Congruent,left,good,left,good,52,1,1135
5,audio,audio,2,Control    ,right,good,right,good,53,1,895
5,audio,audio,2,Congruent,left,bad,left,bad,54,1,1085
5,audio,audio,2,Congruent,left,good,left,good,55,1,976
5,audio,audio,2,Incongruent,right,bad,right,good,56,0,1088
5,audio,audio,2,Control    ,left,good,left,good,57,1,1077
5,audio,audio,2,Congruent,left,bad,left,bad,58,1,756
5,audio,audio,2,Control    ,left,bad,left,bad,59,1,972
5,audio,audio,2,Congruent,left,good,left,good,60,1,988
5,audio,audio,2,Congruent,right,bad,right,bad,61,1,935
5,audio,audio,2,Congruent,right,good,right,good,62,1,931
5,audio,audio,2,Congruent,left,bad,left,bad,63,1,737
5,audio,audio,2,Incongruent,left,bad,left,bad,64,1,1061
5,audio,audio,2,Control    ,right,bad,right,bad,65,1,1092
5,audio,audio,2,Control    ,right,good,right,good,66,1,931
5,audio,audio,2,Congruent,right,good,right,good,67,1,872
5,audio,audio,2,Incongruent,right,good,right,bad,68,0,943
5,audio,audio,2,Control    ,right,bad,right,bad,69,1,1295
5,audio,audio,2,Congruent,left,bad,left,bad,70,1,800
5,audio,audio,2,Congruent,left,good,left,good,71,1,860
5,audio,audio,2,Control    ,left,good,left,good,72,1,909
5,audio,audio,2,Control    ,left,good,left,good,73,1,864
5,audio,audio,2,Incongruent,right,bad,right,good,74,0,1068
5,audio,audio,2,Incongruent,left,good,left,good,75,1,971
5,audio,audio,2,Control    ,left,bad,left,bad,76,1,983
5,audio,audio,2,Congruent,left,good,left,good,77,1,1185
5,audio,audio,2,Congruent,right,bad,right,bad,78,1,823
5,audio,audio,2,Congruent,left,bad,left,bad,79,1,984
5,audio,audio,2,Congruent,right,bad,right,bad,80,1,816
5,audio,audio,2,Congruent,left,bad,left,bad,81,1,664
5,audio,audio,2,Congruent,right,good,right,bad,82,0,704
5,audio,audio,2,Incongruent,left,good,left,good,83,1,883
5,audio,audio,2,Congruent,right,bad,right,bad,84,1,767
5,audio,audio,2,Incongruent,left,bad,left,bad,85,1,1017
5,audio,audio,2,Congruent,left,bad,left,bad,86,1,895
5,audio,audio,2,Incongruent,left,bad,left,bad,87,1,795
5,audio,audio,2,Incongruent,left,bad,left,bad,88,1,1148
5,audio,audio,2,Incongruent,left,good,left,bad,89,0,957
5,audio,audio,2,Control    ,left,bad,left,good,90,0,1027
5,audio,audio,2,Congruent,right,bad,right,bad,91,1,916
5,audio,audio,2,Congruent,right,good,right,good,92,1,1007
5,audio,audio,2,Incongruent,left,bad,left,bad,93,1,947
5,audio,audio,2,Congruent,right,good,right,good,94,1,1088
5,audio,audio,2,Incongruent,right,good,right,bad,95,0,1060
5,audio,audio,2,Congruent,right,good,right,good,96,1,895
5,audio,audio,2,Congruent,left,good,left,good,97,1,1318
5,audio,audio,2,Incongruent,left,bad,left,bad,98,1,851
5,audio,audio,2,Incongruent,right,good,right,good,99,1,919
5,audio,audio,2,Congruent,right,bad,right,bad,100,1,768
5,audio,audio,2,Congruent,right,good,right,good,101,1,967
5,audio,audio,2,Congruent,right,bad,right,bad,102,1,920
5,audio,audio,2,Incongruent,right,good,right,good,103,1,833
5,audio,audio,2,Incongruent,left,bad,left,bad,104,1,904
5,audio,audio,2,Control    ,left,bad,left,bad,105,1,1108
5,audio,audio,2,Control    ,right,bad,right,bad,106,1,931
5,audio,audio,2,Control    ,right,good,right,good,107,1,984
5,audio,audio,2,Congruent,left,bad,left,bad,108,1,856
5,audio,audio,2,Control    ,right,bad,right,bad,109,1,963
5,audio,audio,2,Incongruent,left,bad,left,bad,110,1,896
5,audio,audio,2,Congruent,left,good,left,bad,111,0,831
5,audio,audio,2,Incongruent,right,good,right,good,112,1,1024
5,audio,audio,2,Incongruent,right,good,right,bad,113,0,852
5,audio,audio,2,Incongruent,left,good,left,good,114,1,992
5,audio,audio,2,Control    ,left,good,left,good,115,1,1127
5,audio,audio,2,Control    ,left,good,left,good,116,1,828
5,audio,audio,2,Incongruent,right,good,right,good,117,1,1080
5,audio,audio,2,Incongruent,right,good,right,good,118,1,799
5,audio,audio,2,Control    ,right,good,right,good,119,1,803
5,audio,audio,2,Incongruent,right,bad,right,good,120,0,1264
5,audio,audio,2,Control    ,left,good,left,good,121,1,1179
5,audio,audio,2,Control    ,left,good,left,good,122,1,1059
5,audio,audio,2,Incongruent,right,bad,right,bad,123,1,692
5,audio,audio,2,Control    ,right,good,right,good,124,1,984
5,audio,audio,2,Control    ,right,bad,right,bad,125,1,747
5,audio,audio,2,Control    ,left,bad,left,bad,126,1,1179
5,audio,audio,2,Congruent,right,good,right,good,127,1,1018
5,audio,audio,2,Control    ,left,good,left,good,128,1,1031
5,audio,audio,2,Control    ,left,good,left,good,129,1,843
5,audio,audio,2,Control    ,right,bad,right,bad,130,1,779
5,audio,audio,2,Incongruent,right,bad,right,bad,131,1,856
5,audio,audio,2,Incongruent,left,bad,left,bad,132,1,988
5,audio,audio,2,Control    ,left,bad,left,bad,133,1,966
5,audio,audio,2,Control    ,left,good,left,good,134,1,1212
5,audio,audio,2,Incongruent,left,good,left,bad,135,0,955
5,audio,audio,2,Congruent,right,good,right,good,136,1,1251
5,audio,audio,2,Congruent,right,bad,right,bad,137,1,883
5,audio,audio,2,Incongruent,right,bad,right,bad,138,1,796
5,audio,audio,2,Control    ,left,good,left,good,139,1,1040
5,audio,audio,2,Control    ,right,good,right,good,140,1,1006
5,audio,audio,2,Control    ,right,good,right,bad,141,0,768
5,audio,audio,2,Congruent,right,good,right,good,142,1,991
5,audio,audio,2,Congruent,left,good,left,good,143,1,978
5,audio,audio,2,Incongruent,left,good,left,bad,144,0,1002
5,audio,audio,2,Incongruent,right,good,right,good,145,1,1154
5,audio,audio,2,Incongruent,left,good,left,good,146,1,1038
5,audio,audio,2,Control    ,right,good,right,good,147,1,935
5,audio,audio,2,Congruent,right,bad,right,bad,148,1,719
5,audio,audio,2,Congruent,right,good,right,good,149,1,974
5,audio,audio,2,Incongruent,left,good,left,good,150,1,1392
5,audio,audio,3,Incongruent,left,good,left,good,1,1,889
5,audio,audio,3,Congruent,right,bad,right,bad,2,1,880
5,audio,audio,3,Control    ,right,good,right,good,3,1,837
5,audio,audio,3,Incongruent,left,good,left,good,4,1,1272
5,audio,audio,3,Incongruent,right,good,right,good,5,1,1084
5,audio,audio,3,Control    ,right,good,right,good,6,1,936
5,audio,audio,3,Congruent,left,bad,left,bad,7,1,732
5,audio,audio,3,Congruent,left,good,left,good,8,1,920
5,audio,audio,3,Control    ,left,good,left,good,9,1,816
5,audio,audio,3,Control    ,left,bad,left,bad,10,1,868
5,audio,audio,3,Control    ,right,good,right,good,11,1,924
5,audio,audio,3,Control    ,right,bad,right,bad,12,1,769
5,audio,audio,3,Incongruent,right,good,right,bad,13,0,977
5,audio,audio,3,Congruent,left,good,left,good,14,1,808
5,audio,audio,3,Congruent,right,good,right,good,15,1,920
5,audio,audio,3,Incongruent,right,good,right,bad,16,0,850
5,audio,audio,3,Congruent,left,bad,left,bad,17,1,792
5,audio,audio,3,Incongruent,left,bad,left,bad,18,1,1144
5,audio,audio,3,Incongruent,left,bad,left,bad,19,1,832
5,audio,audio,3,Control    ,right,good,right,good,20,1,844
5,audio,audio,3,Control    ,right,good,right,good,21,1,936
5,audio,audio,3,Congruent,right,bad,right,bad,22,1,852
5,audio,audio,3,Congruent,left,bad,left,bad,23,1,932
5,audio,audio,3,Control    ,right,good,right,good,24,1,968
5,audio,audio,3,Incongruent,left,bad,left,bad,25,1,832
5,audio,audio,3,Congruent,right,bad,right,bad,26,1,996
5,audio,audio,3,Congruent,right,good,right,good,27,1,915
5,audio,audio,3,Incongruent,right,good,right,good,28,1,904
5,audio,audio,3,Control    ,right,good,right,good,29,1,908
5,audio,audio,3,Control    ,left,bad,left,bad,30,1,896
5,audio,audio,3,Congruent,right,bad,right,bad,31,1,1436
5,audio,audio,3,Control    ,left,good,left,bad,32,0,1108
5,audio,audio,3,Congruent,left,good,left,good,33,1,1040
5,audio,audio,3,Incongruent,left,bad,left,bad,34,1,816
5,audio,audio,3,Control    ,left,good,left,good,35,1,879
5,audio,audio,3,Incongruent,left,bad,left,bad,36,1,784
5,audio,audio,3,Incongruent,right,bad,right,bad,37,1,837
5,audio,audio,3,Incongruent,left,bad,left,bad,38,1,738
5,audio,audio,3,Incongruent,right,good,right,good,39,1,992
5,audio,audio,3,Control    ,left,bad,left,bad,40,1,864
5,audio,audio,3,Control    ,left,good,left,good,41,1,968
5,audio,audio,3,Incongruent,left,good,left,good,42,1,1184
5,audio,audio,3,Control    ,right,bad,right,bad,43,1,996
5,audio,audio,3,Incongruent,right,good,right,good,44,1,1032
5,audio,audio,3,Incongruent,right,bad,right,bad,45,1,939
5,audio,audio,3,Incongruent,right,good,right,bad,46,0,899
5,audio,audio,3,Congruent,right,good,right,good,47,1,876
5,audio,audio,3,Congruent,right,bad,right,bad,48,1,727
5,audio,audio,3,Incongruent,right,bad,right,bad,49,1,768
5,audio,audio,3,Control    ,left,bad,left,good,50,0,916
5,audio,audio,3,Control    ,left,good,left,good,51,1,871
5,audio,audio,3,Incongruent,right,bad,right,bad,52,1,716
5,audio,audio,3,Congruent,left,good,left,good,53,1,1087
5,audio,audio,3,Congruent,left,good,left,good,54,1,959
5,audio,audio,3,Congruent,right,good,right,good,55,1,831
5,audio,audio,3,Incongruent,left,good,left,good,56,1,960
5,audio,audio,3,Incongruent,left,bad,left,bad,57,1,991
5,audio,audio,3,Control    ,left,bad,left,bad,58,1,996
5,audio,audio,3,Control    ,left,good,left,good,59,1,792
5,audio,audio,3,Control    ,right,bad,right,bad,60,1,648
5,audio,audio,3,Congruent,right,bad,right,bad,61,1,1103
5,audio,audio,3,Congruent,left,good,left,good,62,1,955
5,audio,audio,3,Congruent,left,good,left,good,63,1,1051
5,audio,audio,3,Control    ,right,bad,right,bad,64,1,911
5,audio,audio,3,Congruent,right,bad,right,bad,65,1,937
5,audio,audio,3,Incongruent,right,good,right,good,66,1,916
5,audio,audio,3,Control    ,right,good,right,good,67,1,860
5,audio,audio,3,Congruent,right,bad,right,bad,68,1,631
5,audio,audio,3,Congruent,right,bad,right,bad,69,1,1132
5,audio,audio,3,Incongruent,left,good,left,bad,70,0,950
5,audio,audio,3,Incongruent,right,bad,right,bad,71,1,819
5,audio,audio,3,Control    ,right,bad,right,good,72,0,1147
5,audio,audio,3,Control    ,right,bad,right,bad,73,1,952
5,audio,audio,3,Control    ,right,good,right,good,74,1,1232
5,audio,audio,3,Congruent,left,bad,left,bad,75,1,763
5,audio,audio,3,Congruent,right,bad,right,bad,76,1,804
5,audio,audio,3,Control    ,right,good,right,good,77,1,771
5,audio,audio,3,Incongruent,left,good,left,bad,78,0,615
5,audio,audio,3,Control    ,right,good,right,good,79,1,787
5,audio,audio,3,Congruent,right,bad,right,bad,80,1,971
5,audio,audio,3,Control    ,right,bad,right,good,81,0,915
5,audio,audio,3,Incongruent,right,bad,right,bad,82,1,787
5,audio,audio,3,Congruent,left,bad,left,bad,83,1,795
5,audio,audio,3,Control    ,left,bad,left,bad,84,1,1191
5,audio,audio,3,Incongruent,right,good,right,bad,85,0,811
5,audio,audio,3,Congruent,right,bad,right,good,86,0,1251
5,audio,audio,3,Congruent,right,good,right,good,87,1,911
5,audio,audio,3,Congruent,left,bad,left,bad,88,1,735
5,audio,audio,3,Control    ,left,good,left,good,89,1,854
5,audio,audio,3,Congruent,right,bad,right,bad,90,1,870
5,audio,audio,3,Congruent,right,bad,right,bad,91,1,720
5,audio,audio,3,Control    ,right,bad,right,bad,92,1,815
5,audio,audio,3,Congruent,right,good,right,good,93,1,864
5,audio,audio,3,Incongruent,left,bad,left,bad,94,1,756
5,audio,audio,3,Control    ,right,good,right,good,95,1,795
5,audio,audio,3,Incongruent,right,good,right,good,96,1,1079
5,audio,audio,3,Congruent,left,good,left,good,97,1,966
5,audio,audio,3,Incongruent,left,bad,left,bad,98,1,859
5,audio,audio,3,Control    ,left,bad,left,bad,99,1,767
5,audio,audio,3,Congruent,left,good,left,good,100,1,843
5,audio,audio,3,Incongruent,left,good,left,bad,101,0,959
5,audio,audio,3,Control    ,left,bad,left,bad,102,1,855
5,audio,audio,3,Congruent,right,good,right,good,103,1,1062
5,audio,audio,3,Incongruent,right,bad,right,bad,104,1,899
5,audio,audio,3,Incongruent,left,bad,left,bad,105,1,879
5,audio,audio,3,Control    ,left,bad,left,bad,106,1,1012
5,audio,audio,3,Congruent,right,good,right,good,107,1,1031
5,audio,audio,3,Control    ,right,good,right,bad,108,0,1103
5,audio,audio,3,Control    ,left,good,left,good,109,1,1158
5,audio,audio,3,Control    ,right,bad,right,bad,110,1,979
5,audio,audio,3,Incongruent,left,good,left,bad,111,0,1083
5,audio,audio,3,Incongruent,left,bad,left,bad,112,1,867
5,audio,audio,3,Incongruent,left,good,left,bad,113,0,935
5,audio,audio,3,Incongruent,left,bad,left,bad,114,1,886
5,audio,audio,3,Incongruent,right,good,right,good,115,1,1074
5,audio,audio,3,Incongruent,left,bad,left,bad,116,1,759
5,audio,audio,3,Congruent,left,good,left,good,117,1,936
5,audio,audio,3,Control    ,right,bad,right,bad,118,1,727
5,audio,audio,3,Incongruent,left,good,left,good,119,1,863
5,audio,audio,3,Congruent,right,bad,right,bad,120,1,699
5,audio,audio,3,Incongruent,right,bad,right,good,121,0,930
5,audio,audio,3,Congruent,left,bad,left,bad,122,1,722
5,audio,audio,3,Congruent,left,bad,left,bad,123,1,710
5,audio,audio,3,Congruent,left,good,left,bad,124,0,842
5,audio,audio,3,Control    ,right,bad,right,bad,125,1,1264
5,audio,audio,3,Congruent,left,bad,left,bad,126,1,666
5,audio,audio,3,Control    ,right,bad,right,good,127,0,806
5,audio,audio,3,Control    ,left,good,left,good,128,1,838
5,audio,audio,3,Incongruent,left,bad,left,bad,129,1,739
5,audio,audio,3,Incongruent,right,good,right,good,130,1,986
5,audio,audio,3,Control    ,right,good,right,good,131,1,783
5,audio,audio,3,Congruent,left,bad,left,bad,132,1,730
5,audio,audio,3,Control    ,right,bad,right,bad,133,1,790
5,audio,audio,3,Control    ,left,bad,left,good,134,0,770
5,audio,audio,3,Incongruent,left,good,left,bad,135,0,715
5,audio,audio,3,Control    ,right,bad,right,bad,136,1,943
5,audio,audio,3,Congruent,left,good,left,good,137,1,1010
5,audio,audio,3,Incongruent,right,good,right,good,138,1,803
5,audio,audio,3,Congruent,right,bad,right,bad,139,1,734
5,audio,audio,3,Congruent,left,good,left,good,140,1,1006
5,audio,audio,3,Incongruent,right,bad,right,bad,141,1,785
5,audio,audio,3,Control    ,right,good,right,good,142,1,885
5,audio,audio,3,Incongruent,right,good,right,good,143,1,899
5,audio,audio,3,Control    ,right,good,right,good,144,1,774
5,audio,audio,3,Incongruent,left,bad,left,bad,145,1,826
5,audio,audio,3,Congruent,right,bad,right,bad,146,1,758
5,audio,audio,3,Control    ,left,bad,left,good,147,0,1082
5,audio,audio,3,Incongruent,left,good,left,good,148,1,962
5,audio,audio,3,Congruent,left,good,left,good,149,1,926
5,audio,audio,3,Congruent,left,good,left,good,150,1,925
5,audio,audio,4,Congruent,left,bad,left,bad,1,1,1085
5,audio,audio,4,Control    ,right,bad,right,bad,2,1,1017
5,audio,audio,4,Control    ,left,good,left,good,3,1,818
5,audio,audio,4,Congruent,right,bad,right,bad,4,1,874
5,audio,audio,4,Incongruent,right,good,right,bad,5,0,977
5,audio,audio,4,Congruent,right,good,right,good,6,1,965
5,audio,audio,4,Incongruent,right,good,right,good,7,1,985
5,audio,audio,4,Control    ,right,bad,right,good,8,0,945
5,audio,audio,4,Congruent,left,bad,left,bad,9,1,769
5,audio,audio,4,Congruent,left,good,left,good,10,1,877
5,audio,audio,4,Incongruent,right,good,right,good,11,1,870
5,audio,audio,4,Congruent,left,bad,left,bad,12,1,862
5,audio,audio,4,Control    ,left,good,left,good,13,1,905
5,audio,audio,4,Incongruent,left,bad,left,bad,14,1,1021
5,audio,audio,4,Control    ,right,good,right,good,15,1,846
5,audio,audio,4,Control    ,left,bad,left,bad,16,1,900
5,audio,audio,4,Incongruent,left,good,left,good,17,1,960
5,audio,audio,4,Congruent,left,bad,left,bad,18,1,1072
5,audio,audio,4,Incongruent,left,good,left,good,19,1,933
5,audio,audio,4,Incongruent,right,good,right,good,20,1,870
5,audio,audio,4,Congruent,left,bad,left,bad,21,1,930
5,audio,audio,4,Congruent,right,good,right,good,22,1,901
5,audio,audio,4,Control    ,left,bad,left,bad,23,1,989
5,audio,audio,4,Control    ,right,bad,right,good,24,0,849
5,audio,audio,4,Incongruent,right,bad,right,good,25,0,1021
5,audio,audio,4,Congruent,left,good,left,good,26,1,861
5,audio,audio,4,Control    ,left,good,left,good,27,1,992
5,audio,audio,4,Congruent,left,good,left,bad,28,0,745
5,audio,audio,4,Control    ,left,bad,left,bad,29,1,1134
5,audio,audio,4,Congruent,right,good,right,good,30,1,1005
5,audio,audio,4,Control    ,left,bad,left,bad,31,1,853
5,audio,audio,4,Incongruent,right,bad,right,bad,32,1,1049
5,audio,audio,4,Control    ,left,bad,left,bad,33,1,941
5,audio,audio,4,Incongruent,left,bad,left,bad,34,1,812
5,audio,audio,4,Incongruent,right,good,right,good,35,1,1041
5,audio,audio,4,Congruent,right,bad,right,good,36,0,1114
5,audio,audio,4,Incongruent,left,bad,left,bad,37,1,1261
5,audio,audio,4,Incongruent,left,bad,left,bad,38,1,842
5,audio,audio,4,Congruent,right,good,right,good,39,1,985
5,audio,audio,4,Control    ,left,bad,left,bad,40,1,753
5,audio,audio,4,Incongruent,right,bad,right,bad,41,1,773
5,audio,audio,4,Incongruent,left,bad,left,bad,42,1,1040
5,audio,audio,4,Control    ,right,bad,right,bad,43,1,1034
5,audio,audio,4,Congruent,right,bad,right,bad,44,1,817
5,audio,audio,4,Control    ,right,good,right,good,45,1,836
5,audio,audio,4,Congruent,right,good,right,good,46,1,965
5,audio,audio,4,Incongruent,right,bad,right,bad,47,1,813
5,audio,audio,4,Control    ,left,bad,left,bad,48,1,761
5,audio,audio,4,Congruent,left,good,left,good,49,1,849
5,audio,audio,4,Control    ,left,bad,left,bad,50,1,1101
5,audio,audio,4,Congruent,left,good,left,good,51,1,857
5,audio,audio,4,Control    ,left,good,left,good,52,1,837
5,audio,audio,4,Incongruent,right,bad,right,bad,53,1,825
5,audio,audio,4,Incongruent,right,good,right,bad,54,0,1065
5,audio,audio,4,Control    ,right,bad,right,bad,55,1,969
5,audio,audio,4,Incongruent,left,good,left,bad,56,0,749
5,audio,audio,4,Control    ,left,bad,left,bad,57,1,1168
5,audio,audio,4,Incongruent,left,bad,left,good,58,0,978
5,audio,audio,4,Incongruent,right,good,right,good,59,1,976
5,audio,audio,4,Incongruent,left,bad,left,bad,60,1,873
5,audio,audio,4,Congruent,right,bad,right,bad,61,1,780
5,audio,audio,4,Control    ,left,good,left,good,62,1,965
5,audio,audio,4,Congruent,left,bad,left,bad,63,1,1149
5,audio,audio,4,Control    ,left,good,left,good,64,1,789
5,audio,audio,4,Control    ,left,bad,left,bad,65,1,892
5,audio,audio,4,Congruent,left,good,left,bad,66,0,813
5,audio,audio,4,Congruent,left,bad,left,good,67,0,1084
5,audio,audio,4,Incongruent,left,bad,left,bad,68,1,952
5,audio,audio,4,Incongruent,right,good,right,bad,69,0,1000
5,audio,audio,4,Incongruent,right,bad,right,bad,70,1,976
5,audio,audio,4,Congruent,right,good,right,good,71,1,1197
5,audio,audio,4,Congruent,right,bad,right,bad,72,1,856
5,audio,audio,4,Congruent,right,bad,right,bad,73,1,825
5,audio,audio,4,Incongruent,left,bad,left,good,74,0,1029
5,audio,audio,4,Control    ,left,bad,left,bad,75,1,797
5,audio,audio,4,Control    ,right,bad,right,bad,76,1,1049
5,audio,audio,4,Control    ,right,bad,right,bad,77,1,956
5,audio,audio,4,Congruent,left,bad,left,bad,78,1,892
5,audio,audio,4,Congruent,left,good,left,good,79,1,988
5,audio,audio,4,Incongruent,left,bad,left,bad,80,1,933
5,audio,audio,4,Incongruent,left,bad,left,bad,81,1,846
5,audio,audio,4,Control    ,right,bad,right,bad,82,1,805
5,audio,audio,4,Incongruent,right,good,right,good,83,1,1005
5,audio,audio,4,Control    ,right,bad,right,bad,84,1,824
5,audio,audio,4,Congruent,left,good,left,good,85,1,937
5,audio,audio,4,Incongruent,left,good,left,good,86,1,840
5,audio,audio,4,Congruent,right,bad,right,bad,87,1,820
5,audio,audio,4,Control    ,right,bad,right,bad,88,1,1060
5,audio,audio,4,Incongruent,right,good,right,bad,89,0,913
5,audio,audio,4,Incongruent,right,bad,right,good,90,0,1040
5,audio,audio,4,Control    ,right,good,right,good,91,1,1032
5,audio,audio,4,Incongruent,right,bad,right,bad,92,1,741
5,audio,audio,4,Congruent,right,good,right,good,93,1,909
5,audio,audio,4,Incongruent,left,bad,left,bad,94,1,973
5,audio,audio,4,Incongruent,right,good,right,bad,95,0,772
5,audio,audio,4,Control    ,left,good,left,good,96,1,884
5,audio,audio,4,Congruent,right,bad,right,bad,97,1,962
5,audio,audio,4,Incongruent,left,good,left,good,98,1,988
5,audio,audio,4,Control    ,right,bad,right,bad,99,1,873
5,audio,audio,4,Congruent,right,bad,right,bad,100,1,824
5,audio,audio,4,Control    ,right,bad,right,good,101,0,1012
5,audio,audio,4,Congruent,left,good,left,good,102,1,912
5,audio,audio,4,Control    ,right,good,right,good,103,1,824
5,audio,audio,4,Incongruent,right,bad,right,bad,104,1,932
5,audio,audio,4,Incongruent,right,good,right,bad,105,0,884
5,audio,audio,4,Congruent,right,bad,right,bad,106,1,1079
5,audio,audio,4,Congruent,left,bad,left,bad,107,1,884
5,audio,audio,4,Incongruent,left,good,left,good,108,1,956
5,audio,audio,4,Control    ,right,bad,right,bad,109,1,984
5,audio,audio,4,Congruent,right,good,right,bad,110,0,804
5,audio,audio,4,Congruent,left,bad,left,bad,111,1,869
5,audio,audio,4,Incongruent,right,good,right,good,112,1,906
5,audio,audio,4,Incongruent,right,bad,right,good,113,0,1008
5,audio,audio,4,Incongruent,left,good,left,bad,114,0,1008
5,audio,audio,4,Congruent,left,bad,left,bad,115,1,915
5,audio,audio,4,Congruent,right,bad,right,bad,116,1,767
5,audio,audio,4,Incongruent,left,good,left,good,117,1,983
5,audio,audio,4,Incongruent,left,bad,left,bad,118,1,1065
5,audio,audio,4,Control    ,right,good,right,good,119,1,860
5,audio,audio,4,Control    ,right,good,right,good,120,1,812
5,audio,audio,4,Incongruent,left,bad,left,bad,121,1,920
5,audio,audio,4,Control    ,right,bad,right,bad,122,1,1011
5,audio,audio,4,Control    ,left,bad,left,bad,123,1,925
5,audio,audio,4,Congruent,right,bad,right,bad,124,1,1116
5,audio,audio,4,Control    ,right,bad,right,bad,125,1,1032
5,audio,audio,4,Congruent,left,good,left,good,126,1,945
5,audio,audio,4,Incongruent,left,good,left,good,127,1,972
5,audio,audio,4,Control    ,left,bad,left,bad,128,1,1001
5,audio,audio,4,Control    ,left,good,left,good,129,1,901
5,audio,audio,4,Control    ,right,bad,right,bad,130,1,837
5,audio,audio,4,Congruent,left,good,left,good,131,1,911
5,audio,audio,4,Congruent,right,bad,right,bad,132,1,732
5,audio,audio,4,Incongruent,right,bad,right,bad,133,1,1060
5,audio,audio,4,Control    ,left,good,left,good,134,1,1115
5,audio,audio,4,Congruent,left,bad,left,bad,135,1,920
5,audio,audio,4,Congruent,left,bad,left,bad,136,1,849
5,audio,audio,4,Congruent,left,bad,left,bad,137,1,812
5,audio,audio,4,Control    ,left,good,left,good,138,1,920
5,audio,audio,4,Control    ,left,good,left,good,139,1,1038
5,audio,audio,4,Congruent,left,good,left,good,140,1,964
5,audio,audio,4,Congruent,left,good,left,good,141,1,1013
5,audio,audio,4,Control    ,left,good,left,good,142,1,879
5,audio,audio,4,Control    ,right,good,right,good,143,1,771
5,audio,audio,4,Incongruent,right,good,right,good,144,1,828
5,audio,audio,4,Control    ,right,good,right,good,145,1,775
5,audio,audio,4,Incongruent,right,good,right,good,146,1,779
5,audio,audio,4,Control    ,left,bad,left,bad,147,1,1112
5,audio,audio,4,Incongruent,left,bad,left,bad,148,1,1028
5,audio,audio,4,Congruent,left,good,left,good,149,1,1015
5,audio,audio,4,Congruent,right,good,right,good,150,1,987
5,audio,audio,5,Control    ,right,bad,right,bad,1,1,934
5,audio,audio,5,Control    ,left,good,left,bad,2,0,819
5,audio,audio,5,Control    ,right,good,right,good,3,1,883
5,audio,audio,5,Incongruent,left,bad,left,bad,4,1,991
5,audio,audio,5,Congruent,right,good,right,good,5,1,922
5,audio,audio,5,Control    ,right,bad,right,bad,6,1,814
5,audio,audio,5,Control    ,right,good,right,good,7,1,898
5,audio,audio,5,Incongruent,right,bad,right,bad,8,1,799
5,audio,audio,5,Incongruent,right,bad,right,bad,9,1,822
5,audio,audio,5,Control    ,left,good,left,good,10,1,858
5,audio,audio,5,Congruent,left,good,left,bad,11,0,714
5,audio,audio,5,Incongruent,left,good,left,good,12,1,1282
5,audio,audio,5,Incongruent,right,bad,right,bad,13,1,954
5,audio,audio,5,Incongruent,right,good,right,good,14,1,934
5,audio,audio,5,Incongruent,right,bad,right,bad,15,1,867
5,audio,audio,5,Control    ,right,good,right,good,16,1,890
5,audio,audio,5,Control    ,left,good,left,good,17,1,1017
5,audio,audio,5,Congruent,right,good,right,good,18,1,1110
5,audio,audio,5,Congruent,left,bad,left,bad,19,1,686
5,audio,audio,5,Control    ,right,bad,right,bad,20,1,738
5,audio,audio,5,Incongruent,left,bad,left,bad,21,1,1043
5,audio,audio,5,Incongruent,right,good,right,bad,22,0,807
5,audio,audio,5,Incongruent,left,bad,left,bad,23,1,799
5,audio,audio,5,Congruent,right,good,right,good,24,1,906
5,audio,audio,5,Congruent,right,good,right,good,25,1,914
5,audio,audio,5,Incongruent,left,bad,left,bad,26,1,742
5,audio,audio,5,Congruent,right,good,right,good,27,1,978
5,audio,audio,5,Incongruent,left,good,left,good,28,1,842
5,audio,audio,5,Congruent,left,good,left,bad,29,0,836
5,audio,audio,5,Incongruent,right,good,right,good,30,1,1123
5,audio,audio,5,Control    ,right,bad,right,bad,31,1,778
5,audio,audio,5,Incongruent,left,good,left,good,32,1,994
5,audio,audio,5,Incongruent,right,bad,right,bad,33,1,950
5,audio,audio,5,Control    ,right,good,right,good,34,1,903
5,audio,audio,5,Incongruent,right,good,right,good,35,1,996
5,audio,audio,5,Control    ,left,bad,left,bad,36,1,722
5,audio,audio,5,Control    ,left,bad,left,bad,37,1,958
5,audio,audio,5,Control    ,left,good,left,good,38,1,827
5,audio,audio,5,Control    ,left,bad,left,bad,39,1,694
5,audio,audio,5,Congruent,left,bad,left,bad,40,1,774
5,audio,audio,5,Control    ,left,good,left,good,41,1,778
5,audio,audio,5,Congruent,right,good,right,good,42,1,843
5,audio,audio,5,Incongruent,right,good,right,good,43,1,978
5,audio,audio,5,Congruent,right,good,right,good,44,1,822
5,audio,audio,5,Incongruent,left,bad,left,bad,45,1,715
5,audio,audio,5,Control    ,right,good,right,good,46,1,846
5,audio,audio,5,Congruent,left,bad,left,bad,47,1,683
5,audio,audio,5,Control    ,left,good,left,good,48,1,714
5,audio,audio,5,Incongruent,right,good,right,good,49,1,830
5,audio,audio,5,Control    ,right,good,right,good,50,1,726
5,audio,audio,5,Congruent,left,bad,left,bad,51,1,859
5,audio,audio,5,Congruent,right,bad,right,bad,52,1,678
5,audio,audio,5,Congruent,right,good,right,good,53,1,797
5,audio,audio,5,Congruent,left,bad,left,bad,54,1,647
5,audio,audio,5,Control    ,left,good,left,good,55,1,686
5,audio,audio,5,Incongruent,right,good,right,good,56,1,898
5,audio,audio,5,Congruent,right,bad,right,bad,57,1,790
5,audio,audio,5,Incongruent,right,bad,right,bad,58,1,826
5,audio,audio,5,Incongruent,right,good,right,good,59,1,841
5,audio,audio,5,Congruent,right,bad,right,bad,60,1,759
5,audio,audio,5,Incongruent,right,good,right,good,61,1,866
5,audio,audio,5,Control    ,right,bad,right,bad,62,1,922
5,audio,audio,5,Congruent,left,bad,left,bad,63,1,862
5,audio,audio,5,Control    ,left,bad,left,bad,64,1,1102
5,audio,audio,5,Control    ,left,bad,left,bad,65,1,894
5,audio,audio,5,Control    ,left,bad,left,bad,66,1,689
5,audio,audio,5,Control    ,left,bad,left,bad,67,1,803
5,audio,audio,5,Incongruent,left,good,left,good,68,1,914
5,audio,audio,5,Incongruent,left,bad,left,bad,69,1,813
5,audio,audio,5,Control    ,right,bad,right,bad,70,1,645
5,audio,audio,5,Control    ,left,good,left,good,71,1,785
5,audio,audio,5,Incongruent,left,bad,left,bad,72,1,800
5,audio,audio,5,Congruent,left,bad,left,bad,73,1,702
5,audio,audio,5,Incongruent,right,bad,right,good,74,0,754
5,audio,audio,5,Control    ,left,bad,left,bad,75,1,905
5,audio,audio,5,Incongruent,right,bad,right,bad,76,1,930
5,audio,audio,5,Congruent,left,good,left,bad,77,0,790
5,audio,audio,5,Incongruent,right,bad,right,bad,78,1,991
5,audio,audio,5,Incongruent,left,bad,left,bad,79,1,810
5,audio,audio,5,Control    ,right,good,right,good,80,1,813
5,audio,audio,5,Control    ,left,good,left,good,81,1,830
5,audio,audio,5,Congruent,right,good,right,good,82,1,938
5,audio,audio,5,Control    ,right,bad,right,bad,83,1,702
5,audio,audio,5,Incongruent,right,good,right,good,84,1,870
5,audio,audio,5,Incongruent,right,bad,right,bad,85,1,975
5,audio,audio,5,Congruent,right,bad,right,bad,86,1,733
5,audio,audio,5,Congruent,left,good,left,good,87,1,874
5,audio,audio,5,Incongruent,right,good,right,bad,88,0,727
5,audio,audio,5,Incongruent,left,good,left,good,89,1,1105
5,audio,audio,5,Control    ,left,bad,left,bad,90,1,702
5,audio,audio,5,Control    ,right,good,right,good,91,1,750
5,audio,audio,5,Incongruent,left,bad,left,bad,92,1,681
5,audio,audio,5,Congruent,left,good,left,good,93,1,1019
5,audio,audio,5,Incongruent,left,bad,left,bad,94,1,673
5,audio,audio,5,Control    ,right,good,right,good,95,1,741
5,audio,audio,5,Incongruent,right,bad,right,bad,96,1,905
5,audio,audio,5,Congruent,left,good,left,good,97,1,804
5,audio,audio,5,Congruent,right,good,right,good,98,1,862
5,audio,audio,5,Control    ,left,bad,left,bad,99,1,713
5,audio,audio,5,Congruent,left,bad,left,bad,100,1,1014
5,audio,audio,5,Incongruent,left,bad,left,bad,101,1,986
5,audio,audio,5,Control    ,left,bad,left,bad,102,1,798
5,audio,audio,5,Control    ,right,good,right,good,103,1,802
5,audio,audio,5,Congruent,left,bad,left,bad,104,1,955
5,audio,audio,5,Congruent,right,bad,right,bad,105,1,723
5,audio,audio,5,Control    ,right,bad,right,bad,106,1,757
5,audio,audio,5,Congruent,right,bad,right,bad,107,1,797
5,audio,audio,5,Control    ,left,bad,left,bad,108,1,790
5,audio,audio,5,Control    ,left,good,left,good,109,1,857
5,audio,audio,5,Control    ,right,good,right,good,110,1,829
5,audio,audio,5,Incongruent,right,bad,right,bad,111,1,756
5,audio,audio,5,Incongruent,right,good,right,bad,112,0,809
5,audio,audio,5,Control    ,left,bad,left,bad,113,1,917
5,audio,audio,5,Congruent,right,good,right,good,114,1,849
5,audio,audio,5,Congruent,left,bad,left,bad,115,1,792
5,audio,audio,5,Congruent,right,bad,right,bad,116,1,686
5,audio,audio,5,Control    ,right,good,right,good,117,1,762
5,audio,audio,5,Control    ,left,good,left,good,118,1,797
5,audio,audio,5,Congruent,left,good,left,good,119,1,1001
5,audio,audio,5,Control    ,right,good,right,good,120,1,752
5,audio,audio,5,Incongruent,right,bad,right,bad,121,1,901
5,audio,audio,5,Incongruent,left,bad,left,good,122,0,986
5,audio,audio,5,Congruent,right,bad,right,bad,123,1,745
5,audio,audio,5,Congruent,left,good,left,good,124,1,868
5,audio,audio,5,Control    ,left,good,left,good,125,1,818
5,audio,audio,5,Incongruent,left,bad,left,bad,126,1,833
5,audio,audio,5,Congruent,left,good,left,good,127,1,949
5,audio,audio,5,Incongruent,right,good,right,good,128,1,757
5,audio,audio,5,Congruent,right,bad,right,bad,129,1,801
5,audio,audio,5,Congruent,left,bad,left,bad,130,1,701
5,audio,audio,5,Incongruent,left,good,left,good,131,1,956
5,audio,audio,5,Control    ,right,good,right,bad,132,0,713
5,audio,audio,5,Control    ,left,bad,left,good,133,0,753
5,audio,audio,5,Incongruent,left,good,left,good,134,1,909
5,audio,audio,5,Incongruent,left,good,left,good,135,1,941
5,audio,audio,5,Congruent,left,good,left,good,136,1,921
5,audio,audio,5,Congruent,right,good,right,good,137,1,757
5,audio,audio,5,Congruent,left,bad,left,bad,138,1,828
5,audio,audio,5,Incongruent,left,bad,left,bad,139,1,809
5,audio,audio,5,Congruent,left,bad,left,bad,140,1,808
5,audio,audio,5,Control    ,left,bad,left,bad,141,1,932
5,audio,audio,5,Congruent,right,good,right,good,142,1,797
5,audio,audio,5,Incongruent,left,good,left,good,143,1,1041
5,audio,audio,5,Congruent,left,good,left,bad,144,0,1269
5,audio,audio,5,Congruent,left,bad,left,bad,145,1,833
5,audio,audio,5,Incongruent,right,good,right,good,146,1,1173
5,audio,audio,5,Control    ,right,good,right,good,147,1,1081
5,audio,audio,5,Congruent,right,bad,right,bad,148,1,760
5,audio,audio,5,Congruent,right,good,right,good,149,1,1048
5,audio,audio,5,Congruent,left,good,left,good,150,1,948
5,audio,audio,6,Congruent,right,bad,right,bad,1,1,1058
5,audio,audio,6,Control    ,left,bad,left,bad,2,1,873
5,audio,audio,6,Congruent,right,bad,right,bad,3,1,907
5,audio,audio,6,Control    ,left,good,left,good,4,1,754
5,audio,audio,6,Incongruent,left,bad,left,bad,5,1,910
5,audio,audio,6,Incongruent,left,good,left,bad,6,0,752
5,audio,audio,6,Congruent,left,bad,left,bad,7,1,846
5,audio,audio,6,Control    ,right,bad,right,bad,8,1,778
5,audio,audio,6,Congruent,right,bad,right,good,9,0,1162
5,audio,audio,6,Control    ,right,bad,right,good,10,0,806
5,audio,audio,6,Incongruent,left,good,left,good,11,1,954
5,audio,audio,6,Incongruent,left,bad,left,bad,12,1,1063
5,audio,audio,6,Incongruent,right,bad,right,bad,13,1,819
5,audio,audio,6,Congruent,right,bad,right,bad,14,1,918
5,audio,audio,6,Incongruent,right,good,right,good,15,1,942
5,audio,audio,6,Congruent,left,good,left,good,16,1,966
5,audio,audio,6,Congruent,right,bad,right,bad,17,1,798
5,audio,audio,6,Control    ,right,good,right,good,18,1,818
5,audio,audio,6,Congruent,left,bad,left,bad,19,1,833
5,audio,audio,6,Control    ,right,good,right,good,20,1,814
5,audio,audio,6,Incongruent,right,bad,right,good,21,0,812
5,audio,audio,6,Control    ,right,bad,right,bad,22,1,726
5,audio,audio,6,Incongruent,left,good,left,bad,23,0,1074
5,audio,audio,6,Incongruent,left,bad,left,good,24,0,890
5,audio,audio,6,Incongruent,left,bad,left,bad,25,1,819
5,audio,audio,6,Congruent,left,bad,left,good,26,0,910
5,audio,audio,6,Congruent,right,good,right,good,27,1,1010
5,audio,audio,6,Congruent,right,good,right,good,28,1,1071
5,audio,audio,6,Control    ,right,bad,right,bad,29,1,1095
5,audio,audio,6,Congruent,right,bad,right,good,30,0,958
5,audio,audio,6,Incongruent,right,good,right,good,31,1,962
5,audio,audio,6,Control    ,left,good,left,good,32,1,958
5,audio,audio,6,Control    ,left,bad,left,bad,33,1,893
5,audio,audio,6,Incongruent,right,good,right,good,34,1,922
5,audio,audio,6,Congruent,right,bad,right,bad,35,1,1061
5,audio,audio,6,Incongruent,left,bad,left,bad,36,1,781
5,audio,audio,6,Control    ,right,good,right,good,37,1,886
5,audio,audio,6,Control    ,left,bad,left,bad,38,1,954
5,audio,audio,6,Congruent,left,bad,left,bad,39,1,730
5,audio,audio,6,Control    ,right,good,right,good,40,1,993
5,audio,audio,6,Incongruent,right,bad,right,good,41,0,841
5,audio,audio,6,Congruent,left,bad,left,bad,42,1,738
5,audio,audio,6,Incongruent,left,bad,left,bad,43,1,835
5,audio,audio,6,Congruent,left,good,left,good,44,1,769
5,audio,audio,6,Incongruent,right,bad,right,good,45,0,841
5,audio,audio,6,Incongruent,left,good,left,good,46,1,1006
5,audio,audio,6,Control    ,left,good,left,good,47,1,859
5,audio,audio,6,Congruent,left,bad,left,bad,48,1,721
5,audio,audio,6,Control    ,right,good,right,good,49,1,794
5,audio,audio,6,Incongruent,left,good,left,bad,50,0,721
5,audio,audio,6,Incongruent,left,bad,left,bad,51,1,985
5,audio,audio,6,Incongruent,left,bad,left,bad,52,1,885
5,audio,audio,6,Incongruent,right,good,right,bad,53,0,757
5,audio,audio,6,Congruent,left,good,left,good,54,1,953
5,audio,audio,6,Incongruent,left,bad,left,bad,55,1,776
5,audio,audio,6,Control    ,left,bad,left,good,56,0,1091
5,audio,audio,6,Incongruent,right,good,right,good,57,1,1010
5,audio,audio,6,Control    ,left,good,left,good,58,1,837
5,audio,audio,6,Congruent,left,bad,left,bad,59,1,917
5,audio,audio,6,Congruent,right,good,right,good,60,1,893
5,audio,audio,6,Incongruent,left,good,left,good,61,1,1125
5,audio,audio,6,Incongruent,right,good,right,good,62,1,945
5,audio,audio,6,Congruent,left,good,left,good,63,1,901
5,audio,audio,6,Congruent,right,bad,right,bad,64,1,677
5,audio,audio,6,Congruent,right,good,right,good,65,1,830
5,audio,audio,6,Congruent,right,bad,right,bad,66,1,778
5,audio,audio,6,Control    ,left,bad,left,bad,67,1,863
5,audio,audio,6,Congruent,right,good,right,good,68,1,877
5,audio,audio,6,Incongruent,right,bad,right,good,69,0,993
5,audio,audio,6,Control    ,left,good,left,good,70,1,866
5,audio,audio,6,Control    ,right,bad,right,bad,71,1,745
5,audio,audio,6,Control    ,left,bad,left,bad,72,1,753
5,audio,audio,6,Congruent,left,good,left,good,73,1,874
5,audio,audio,6,Control    ,left,bad,left,bad,74,1,867
5,audio,audio,6,Incongruent,left,good,left,bad,75,0,759
5,audio,audio,6,Incongruent,left,good,left,good,76,1,962
5,audio,audio,6,Congruent,right,bad,right,bad,77,1,1169
5,audio,audio,6,Congruent,right,bad,right,bad,78,1,981
5,audio,audio,6,Control    ,left,good,left,good,79,1,799
5,audio,audio,6,Congruent,left,bad,left,good,80,0,1069
5,audio,audio,6,Control    ,left,bad,left,bad,81,1,945
5,audio,audio,6,Congruent,right,bad,right,bad,82,1,1009
5,audio,audio,6,Congruent,left,good,left,good,83,1,1110
5,audio,audio,6,Congruent,left,bad,left,bad,84,1,859
5,audio,audio,6,Congruent,right,bad,right,bad,85,1,726
5,audio,audio,6,Control    ,right,bad,right,bad,86,1,901
5,audio,audio,6,Congruent,left,bad,left,bad,87,1,773
5,audio,audio,6,Control    ,right,bad,right,bad,88,1,869
5,audio,audio,6,Incongruent,right,bad,right,bad,89,1,969
5,audio,audio,6,Control    ,right,bad,right,bad,90,1,841
5,audio,audio,6,Control    ,left,bad,left,good,91,0,871
5,audio,audio,6,Congruent,right,bad,right,bad,92,1,873
5,audio,audio,6,Incongruent,left,bad,left,bad,93,1,737
5,audio,audio,6,Control    ,left,good,left,good,94,1,865
5,audio,audio,6,Control    ,right,good,right,good,95,1,816
5,audio,audio,6,Congruent,right,good,right,good,96,1,797
5,audio,audio,6,Incongruent,right,bad,right,bad,97,1,853
5,audio,audio,6,Incongruent,left,good,left,good,98,1,1050
5,audio,audio,6,Control    ,right,bad,right,bad,99,1,1040
5,audio,audio,6,Control    ,left,good,left,good,100,1,921
5,audio,audio,6,Congruent,right,good,right,good,101,1,842
5,audio,audio,6,Incongruent,left,bad,left,bad,102,1,929
5,audio,audio,6,Incongruent,left,bad,left,bad,103,1,994
5,audio,audio,6,Control    ,left,bad,left,bad,104,1,1037
